[
  {
    "STUDYID": "ONC-2025-001",
    "USUBJID": "ONC-2025-001-001",
    "AESEQ": 1,
    "AETERM": "Nausea",
    "AELLT": "Nausea",
    "AEPT": "Nausea",
    "AESOC": "GASTROINTESTINAL DISORDERS",
    "AESTDTC": "2025-01-15T10:00:00",
    "AESTDT": "2025-01-15",
    "AEDY": 6,
    "AESEV": "MILD",
    "AESEVN": 1,
    "AEREL": "RELATED",
    "AERELFL": "N",
    "AESER": "N",
    "TRTEMFL": "Y",
    "TRT01A": "Pembrolizumab 200mg",
    "TRT01AN": 2,
    "SAFFL": "Y"
  },
  {
    "STUDYID": "ONC-2025-001",
    "USUBJID": "ONC-2025-001-001",
    "AESEQ": 2,
    "AETERM": "Fatigue",
    "AELLT": "Fatigue",
    "AEPT": "Fatigue",
    "AESOC": "GENERAL DISORDERS AND ADMINISTRATION SITE CONDITIONS",
    "AESTDTC": "2025-02-01T08:00:00",
    "AESTDT": "2025-02-01",
    "AEDY": 23,
    "AESEV": "MODERATE",
    "AESEVN": 2,
    "AEREL": "RELATED",
    "AERELFL": "N",
    "AESER": "N",
    "TRTEMFL": "Y",
    "TRT01A": "Pembrolizumab 200mg",
    "TRT01AN": 2,
    "SAFFL": "Y"
  },
  {
    "STUDYID": "ONC-2025-001",
    "USUBJID": "ONC-2025-001-002",
    "AESEQ": 3,
    "AETERM": "Headache",
    "AELLT": "Headache",
    "AEPT": "Headache",
    "AESOC": "NERVOUS SYSTEM DISORDERS",
    "AESTDTC": "2025-01-20T14:00:00",
    "AESTDT": "2025-01-20",
    "AEDY": 9,
    "AESEV": "MILD",
    "AESEVN": 1,
    "AEREL": "NOT RELATED",
    "AERELFL": "N",
    "AESER": "N",
    "TRTEMFL": "Y",
    "TRT01A": "Pembrolizumab 200mg",
    "TRT01AN": 2,
    "SAFFL": "Y"
  },
  {
    "STUDYID": "ONC-2025-001",
    "USUBJID": "ONC-2025-001-003",
    "AESEQ": 4,
    "AETERM": "Rash maculo-papular",
    "AELLT": "Rash maculo-papular",
    "AEPT": "Rash maculo-papular",
    "AESOC": "SKIN AND SUBCUTANEOUS TISSUE DISORDERS",
    "AESTDTC": "2025-02-10T09:00:00",
    "AESTDT": "2025-02-10",
    "AEDY": 27,
    "AESEV": "MODERATE",
    "AESEVN": 2,
    "AEREL": "RELATED",
    "AERELFL": "N",
    "AESER": "N",
    "TRTEMFL": "Y",
    "TRT01A": "Placebo",
    "TRT01AN": 2,
    "SAFFL": "Y"
  },
  {
    "STUDYID": "ONC-2025-001",
    "USUBJID": "ONC-2025-001-005",
    "AESEQ": 5,
    "AETERM": "Pyrexia",
    "AELLT": "Pyrexia",
    "AEPT": "Pyrexia",
    "AESOC": "GENERAL DISORDERS AND ADMINISTRATION SITE CONDITIONS",
    "AESTDTC": "2025-02-14T11:00:00",
    "AESTDT": "2025-02-14",
    "AEDY": 26,
    "AESEV": "MILD",
    "AESEVN": 1,
    "AEREL": "RELATED",
    "AERELFL": "N",
    "AESER": "N",
    "TRTEMFL": "Y",
    "TRT01A": "Pembrolizumab 200mg",
    "TRT01AN": 2,
    "SAFFL": "Y"
  },
  {
    "STUDYID": "ONC-2025-001",
    "USUBJID": "ONC-2025-001-008",
    "AESEQ": 6,
    "AETERM": "Diarrhea",
    "AELLT": "Diarrhea",
    "AEPT": "Diarrhea",
    "AESOC": "GASTROINTESTINAL DISORDERS",
    "AESTDTC": "2025-02-22T08:00:00",
    "AESTDT": "2025-02-22",
    "AEDY": 26,
    "AESEV": "MODERATE",
    "AESEVN": 2,
    "AEREL": "RELATED",
    "AERELFL": "N",
    "AESER": "N",
    "TRTEMFL": "Y",
    "TRT01A": "Pembrolizumab 200mg",
    "TRT01AN": 2,
    "SAFFL": "Y"
  },
  {
    "STUDYID": "ONC-2025-001",
    "USUBJID": "ONC-2025-001-010",
    "AESEQ": 7,
    "AETERM": "Pruritus",
    "AELLT": "Pruritus",
    "AEPT": "Pruritus",
    "AESOC": "SKIN AND SUBCUTANEOUS TISSUE DISORDERS",
    "AESTDTC": "2025-03-01T10:00:00",
    "AESTDT": "2025-03-01",
    "AEDY": -569,
    "AESEV": "MILD",
    "AESEVN": 1,
    "AEREL": "RELATED",
    "AERELFL": "N",
    "AESER": "N",
    "TRTEMFL": "N",
    "TRT01A": "Active Drug",
    "TRT01AN": 2,
    "SAFFL": "Y"
  }
]