[
  {
    "STUDYID": "ONC-2025-001",
    "USUBJID": "ONC-2025-001-001",
    "CMTRT": "Metformin Hydrochloride",
    "CMDECOD": "METFORMIN",
    "CMCLAS": "BIGUANIDES",
    "CMDOSE": 500,
    "CMDOSU": "mg",
    "ASTDT": "2024-06-01",
    "AENDT": "",
    "PREFL": "Y",
    "ONTRTFL": "Y",
    "TRTP": "Pembrolizumab 200mg"
  },
  {
    "STUDYID": "ONC-2025-001",
    "USUBJID": "ONC-2025-001-001",
    "CMTRT": "Atorvastatin Calcium",
    "CMDECOD": "ATORVASTATIN",
    "CMCLAS": "HMG-COA REDUCTASE INHIBITORS",
    "CMDOSE": 20,
    "CMDOSU": "mg",
    "ASTDT": "2024-06-01",
    "AENDT": "",
    "PREFL": "Y",
    "ONTRTFL": "Y",
    "TRTP": "Pembrolizumab 200mg"
  },
  {
    "STUDYID": "ONC-2025-001",
    "USUBJID": "ONC-2025-001-002",
    "CMTRT": "Metformin Hydrochloride",
    "CMDECOD": "METFORMIN",
    "CMCLAS": "BIGUANIDES",
    "CMDOSE": 500,
    "CMDOSU": "mg",
    "ASTDT": "2024-06-01",
    "AENDT": "",
    "PREFL": "Y",
    "ONTRTFL": "Y",
    "TRTP": "Pembrolizumab 200mg"
  },
  {
    "STUDYID": "ONC-2025-001",
    "USUBJID": "ONC-2025-001-002",
    "CMTRT": "Atorvastatin Calcium",
    "CMDECOD": "ATORVASTATIN",
    "CMCLAS": "HMG-COA REDUCTASE INHIBITORS",
    "CMDOSE": 20,
    "CMDOSU": "mg",
    "ASTDT": "2024-06-01",
    "AENDT": "",
    "PREFL": "Y",
    "ONTRTFL": "Y",
    "TRTP": "Pembrolizumab 200mg"
  },
  {
    "STUDYID": "ONC-2025-001",
    "USUBJID": "ONC-2025-001-003",
    "CMTRT": "Metformin Hydrochloride",
    "CMDECOD": "METFORMIN",
    "CMCLAS": "BIGUANIDES",
    "CMDOSE": 500,
    "CMDOSU": "mg",
    "ASTDT": "2024-06-01",
    "AENDT": "",
    "PREFL": "Y",
    "ONTRTFL": "Y",
    "TRTP": "Placebo"
  },
  {
    "STUDYID": "ONC-2025-001",
    "USUBJID": "ONC-2025-001-003",
    "CMTRT": "Atorvastatin Calcium",
    "CMDECOD": "ATORVASTATIN",
    "CMCLAS": "HMG-COA REDUCTASE INHIBITORS",
    "CMDOSE": 20,
    "CMDOSU": "mg",
    "ASTDT": "2024-06-01",
    "AENDT": "",
    "PREFL": "Y",
    "ONTRTFL": "Y",
    "TRTP": "Placebo"
  },
  {
    "STUDYID": "ONC-2025-001",
    "USUBJID": "ONC-2025-001-004",
    "CMTRT": "Metformin Hydrochloride",
    "CMDECOD": "METFORMIN",
    "CMCLAS": "BIGUANIDES",
    "CMDOSE": 500,
    "CMDOSU": "mg",
    "ASTDT": "2024-06-01",
    "AENDT": "",
    "PREFL": "Y",
    "ONTRTFL": "Y",
    "TRTP": "Placebo"
  },
  {
    "STUDYID": "ONC-2025-001",
    "USUBJID": "ONC-2025-001-004",
    "CMTRT": "Atorvastatin Calcium",
    "CMDECOD": "ATORVASTATIN",
    "CMCLAS": "HMG-COA REDUCTASE INHIBITORS",
    "CMDOSE": 20,
    "CMDOSU": "mg",
    "ASTDT": "2024-06-01",
    "AENDT": "",
    "PREFL": "Y",
    "ONTRTFL": "Y",
    "TRTP": "Placebo"
  },
  {
    "STUDYID": "ONC-2025-001",
    "USUBJID": "ONC-2025-001-005",
    "CMTRT": "Metformin Hydrochloride",
    "CMDECOD": "METFORMIN",
    "CMCLAS": "BIGUANIDES",
    "CMDOSE": 500,
    "CMDOSU": "mg",
    "ASTDT": "2024-06-01",
    "AENDT": "",
    "PREFL": "Y",
    "ONTRTFL": "Y",
    "TRTP": "Pembrolizumab 200mg"
  },
  {
    "STUDYID": "ONC-2025-001",
    "USUBJID": "ONC-2025-001-005",
    "CMTRT": "Atorvastatin Calcium",
    "CMDECOD": "ATORVASTATIN",
    "CMCLAS": "HMG-COA REDUCTASE INHIBITORS",
    "CMDOSE": 20,
    "CMDOSU": "mg",
    "ASTDT": "2024-06-01",
    "AENDT": "",
    "PREFL": "Y",
    "ONTRTFL": "Y",
    "TRTP": "Pembrolizumab 200mg"
  },
  {
    "STUDYID": "ONC-2025-001",
    "USUBJID": "ONC-2025-001-006",
    "CMTRT": "Metformin Hydrochloride",
    "CMDECOD": "METFORMIN",
    "CMCLAS": "BIGUANIDES",
    "CMDOSE": 500,
    "CMDOSU": "mg",
    "ASTDT": "2024-06-01",
    "AENDT": "",
    "PREFL": "Y",
    "ONTRTFL": "Y",
    "TRTP": "Pembrolizumab 200mg"
  },
  {
    "STUDYID": "ONC-2025-001",
    "USUBJID": "ONC-2025-001-006",
    "CMTRT": "Atorvastatin Calcium",
    "CMDECOD": "ATORVASTATIN",
    "CMCLAS": "HMG-COA REDUCTASE INHIBITORS",
    "CMDOSE": 20,
    "CMDOSU": "mg",
    "ASTDT": "2024-06-01",
    "AENDT": "",
    "PREFL": "Y",
    "ONTRTFL": "Y",
    "TRTP": "Pembrolizumab 200mg"
  },
  {
    "STUDYID": "ONC-2025-001",
    "USUBJID": "ONC-2025-001-007",
    "CMTRT": "Metformin Hydrochloride",
    "CMDECOD": "METFORMIN",
    "CMCLAS": "BIGUANIDES",
    "CMDOSE": 500,
    "CMDOSU": "mg",
    "ASTDT": "2024-06-01",
    "AENDT": "",
    "PREFL": "Y",
    "ONTRTFL": "Y",
    "TRTP": "Placebo"
  },
  {
    "STUDYID": "ONC-2025-001",
    "USUBJID": "ONC-2025-001-007",
    "CMTRT": "Atorvastatin Calcium",
    "CMDECOD": "ATORVASTATIN",
    "CMCLAS": "HMG-COA REDUCTASE INHIBITORS",
    "CMDOSE": 20,
    "CMDOSU": "mg",
    "ASTDT": "2024-06-01",
    "AENDT": "",
    "PREFL": "Y",
    "ONTRTFL": "Y",
    "TRTP": "Placebo"
  },
  {
    "STUDYID": "ONC-2025-001",
    "USUBJID": "ONC-2025-001-008",
    "CMTRT": "Metformin Hydrochloride",
    "CMDECOD": "METFORMIN",
    "CMCLAS": "BIGUANIDES",
    "CMDOSE": 500,
    "CMDOSU": "mg",
    "ASTDT": "2024-06-01",
    "AENDT": "",
    "PREFL": "Y",
    "ONTRTFL": "Y",
    "TRTP": "Pembrolizumab 200mg"
  },
  {
    "STUDYID": "ONC-2025-001",
    "USUBJID": "ONC-2025-001-008",
    "CMTRT": "Atorvastatin Calcium",
    "CMDECOD": "ATORVASTATIN",
    "CMCLAS": "HMG-COA REDUCTASE INHIBITORS",
    "CMDOSE": 20,
    "CMDOSU": "mg",
    "ASTDT": "2024-06-01",
    "AENDT": "",
    "PREFL": "Y",
    "ONTRTFL": "Y",
    "TRTP": "Pembrolizumab 200mg"
  },
  {
    "STUDYID": "ONC-2025-001",
    "USUBJID": "ONC-2025-001-009",
    "CMTRT": "Metformin Hydrochloride",
    "CMDECOD": "METFORMIN",
    "CMCLAS": "BIGUANIDES",
    "CMDOSE": 500,
    "CMDOSU": "mg",
    "ASTDT": "2024-06-01",
    "AENDT": "",
    "PREFL": "Y",
    "ONTRTFL": "Y",
    "TRTP": "Placebo"
  },
  {
    "STUDYID": "ONC-2025-001",
    "USUBJID": "ONC-2025-001-009",
    "CMTRT": "Atorvastatin Calcium",
    "CMDECOD": "ATORVASTATIN",
    "CMCLAS": "HMG-COA REDUCTASE INHIBITORS",
    "CMDOSE": 20,
    "CMDOSU": "mg",
    "ASTDT": "2024-06-01",
    "AENDT": "",
    "PREFL": "Y",
    "ONTRTFL": "Y",
    "TRTP": "Placebo"
  },
  {
    "STUDYID": "ONC-2025-001",
    "USUBJID": "ONC-2025-001-010",
    "CMTRT": "Metformin Hydrochloride",
    "CMDECOD": "METFORMIN",
    "CMCLAS": "BIGUANIDES",
    "CMDOSE": 500,
    "CMDOSU": "mg",
    "ASTDT": "2024-06-01",
    "AENDT": "",
    "PREFL": "Y",
    "ONTRTFL": "Y",
    "TRTP": "Active Drug"
  },
  {
    "STUDYID": "ONC-2025-001",
    "USUBJID": "ONC-2025-001-010",
    "CMTRT": "Atorvastatin Calcium",
    "CMDECOD": "ATORVASTATIN",
    "CMCLAS": "HMG-COA REDUCTASE INHIBITORS",
    "CMDOSE": 20,
    "CMDOSU": "mg",
    "ASTDT": "2024-06-01",
    "AENDT": "",
    "PREFL": "Y",
    "ONTRTFL": "Y",
    "TRTP": "Active Drug"
  }
]