[
  {
    "STUDYID": "ONC-2025-001",
    "USUBJID": "ONC-2025-001-001",
    "PARAMCD": "SYSBP",
    "PARAM": "Systolic Blood Pressure",
    "PARCAT1": "CHEMISTRY",
    "AVAL": 122,
    "AVALC": "122",
    "AVALU": "mmHg",
    "BASE": 122,
    "CHG": 0,
    "PCHG": 0,
    "ABLFL": "Y",
    "ANRLO": 0,
    "ANRHI": 100,
    "ANRIND": "HIGH",
    "ATOXGR": 1,
    "ADY": 1,
    "AVISIT": "Baseline",
    "AVISITN": 2,
    "ADTM": "2025-01-10T08:30:00",
    "TRT01A": "Pembrolizumab 200mg",
    "TRT01AN": 2,
    "SAFFL": "Y"
  },
  {
    "STUDYID": "ONC-2025-001",
    "USUBJID": "ONC-2025-001-001",
    "PARAMCD": "DIABP",
    "PARAM": "Diastolic Blood Pressure",
    "PARCAT1": "CHEMISTRY",
    "AVAL": 78,
    "AVALC": "78",
    "AVALU": "mmHg",
    "BASE": 78,
    "CHG": 0,
    "PCHG": 0,
    "ABLFL": "Y",
    "ANRLO": 0,
    "ANRHI": 100,
    "ANRIND": "NORMAL",
    "ATOXGR": 0,
    "ADY": 1,
    "AVISIT": "Baseline",
    "AVISITN": 2,
    "ADTM": "2025-01-10T08:30:00",
    "TRT01A": "Pembrolizumab 200mg",
    "TRT01AN": 2,
    "SAFFL": "Y"
  },
  {
    "STUDYID": "ONC-2025-001",
    "USUBJID": "ONC-2025-001-001",
    "PARAMCD": "PULSE",
    "PARAM": "Pulse Rate",
    "PARCAT1": "CHEMISTRY",
    "AVAL": 70,
    "AVALC": "70",
    "AVALU": "beats/min",
    "BASE": 70,
    "CHG": 0,
    "PCHG": 0,
    "ABLFL": "Y",
    "ANRLO": 0,
    "ANRHI": 100,
    "ANRIND": "NORMAL",
    "ATOXGR": 0,
    "ADY": 1,
    "AVISIT": "Baseline",
    "AVISITN": 2,
    "ADTM": "2025-01-10T08:30:00",
    "TRT01A": "Pembrolizumab 200mg",
    "TRT01AN": 2,
    "SAFFL": "Y"
  },
  {
    "STUDYID": "ONC-2025-001",
    "USUBJID": "ONC-2025-001-002",
    "PARAMCD": "SYSBP",
    "PARAM": "Systolic Blood Pressure",
    "PARCAT1": "CHEMISTRY",
    "AVAL": 128,
    "AVALC": "128",
    "AVALU": "mmHg",
    "BASE": 128,
    "CHG": 0,
    "PCHG": 0,
    "ABLFL": "Y",
    "ANRLO": 0,
    "ANRHI": 100,
    "ANRIND": "HIGH",
    "ATOXGR": 1,
    "ADY": 1,
    "AVISIT": "Baseline",
    "AVISITN": 2,
    "ADTM": "2025-01-12T08:30:00",
    "TRT01A": "Pembrolizumab 200mg",
    "TRT01AN": 2,
    "SAFFL": "Y"
  },
  {
    "STUDYID": "ONC-2025-001",
    "USUBJID": "ONC-2025-001-002",
    "PARAMCD": "DIABP",
    "PARAM": "Diastolic Blood Pressure",
    "PARCAT1": "CHEMISTRY",
    "AVAL": 82,
    "AVALC": "82",
    "AVALU": "mmHg",
    "BASE": 82,
    "CHG": 0,
    "PCHG": 0,
    "ABLFL": "Y",
    "ANRLO": 0,
    "ANRHI": 100,
    "ANRIND": "NORMAL",
    "ATOXGR": 0,
    "ADY": 1,
    "AVISIT": "Baseline",
    "AVISITN": 2,
    "ADTM": "2025-01-12T08:30:00",
    "TRT01A": "Pembrolizumab 200mg",
    "TRT01AN": 2,
    "SAFFL": "Y"
  }
]