[
  {
    "STUDYID": "ONC-2025-001",
    "USUBJID": "ONC-2025-001-001",
    "SUBJID": "001",
    "SITEID": "101",
    "AGE": 58,
    "AGEGR1": "<65",
    "AGEGR1N": 1,
    "AGEU": "YEARS",
    "SEX": "M",
    "RACE": "WHITE",
    "ETHNIC": "HISPANIC OR LATINO",
    "ARM": "Pembrolizumab 200mg",
    "ARMCD": "TRT",
    "TRT01P": "Pembrolizumab 200mg",
    "TRT01PN": 2,
    "TRT01A": "Pembrolizumab 200mg",
    "TRT01AN": 2,
    "TRTSDT": "2025-01-10",
    "TRTEDT": "2025-06-15",
    "TRTDURD": 157,
    "ITTFL": "Y",
    "SAFFL": "Y",
    "PPFL": "Y",
    "FASFL": "Y",
    "EFFFL": "N",
    "COMPLFL": "Y",
    "COMPLIANCE": 98,
    "DISCONT": "N"
  },
  {
    "STUDYID": "ONC-2025-001",
    "USUBJID": "ONC-2025-001-002",
    "SUBJID": "002",
    "SITEID": "101",
    "AGE": 64,
    "AGEGR1": "<65",
    "AGEGR1N": 1,
    "AGEU": "YEARS",
    "SEX": "F",
    "RACE": "ASIAN",
    "ETHNIC": "HISPANIC OR LATINO",
    "ARM": "Pembrolizumab 200mg",
    "ARMCD": "TRT",
    "TRT01P": "Pembrolizumab 200mg",
    "TRT01PN": 2,
    "TRT01A": "Pembrolizumab 200mg",
    "TRT01AN": 2,
    "TRTSDT": "2025-01-12",
    "TRTEDT": "2025-06-18",
    "TRTDURD": 158,
    "ITTFL": "Y",
    "SAFFL": "Y",
    "PPFL": "Y",
    "FASFL": "Y",
    "EFFFL": "N",
    "COMPLFL": "Y",
    "COMPLIANCE": 94,
    "DISCONT": "N"
  },
  {
    "STUDYID": "ONC-2025-001",
    "USUBJID": "ONC-2025-001-003",
    "SUBJID": "003",
    "SITEID": "102",
    "AGE": 52,
    "AGEGR1": "<65",
    "AGEGR1N": 1,
    "AGEU": "YEARS",
    "SEX": "M",
    "RACE": "BLACK OR AFRICAN AMERICAN",
    "ETHNIC": "HISPANIC OR LATINO",
    "ARM": "Placebo",
    "ARMCD": "PLAC",
    "TRT01P": "Placebo",
    "TRT01PN": 2,
    "TRT01A": "Placebo",
    "TRT01AN": 2,
    "TRTSDT": "2025-01-15",
    "TRTEDT": "2025-06-20",
    "TRTDURD": 157,
    "ITTFL": "Y",
    "SAFFL": "Y",
    "PPFL": "Y",
    "FASFL": "Y",
    "EFFFL": "N",
    "COMPLFL": "Y",
    "COMPLIANCE": 92,
    "DISCONT": "N"
  },
  {
    "STUDYID": "ONC-2025-001",
    "USUBJID": "ONC-2025-001-004",
    "SUBJID": "004",
    "SITEID": "102",
    "AGE": 71,
    "AGEGR1": ">=65",
    "AGEGR1N": 2,
    "AGEU": "YEARS",
    "SEX": "F",
    "RACE": "WHITE",
    "ETHNIC": "HISPANIC OR LATINO",
    "ARM": "Placebo",
    "ARMCD": "PLAC",
    "TRT01P": "Placebo",
    "TRT01PN": 2,
    "TRT01A": "Placebo",
    "TRT01AN": 2,
    "TRTSDT": "2025-01-18",
    "TRTEDT": "2025-06-22",
    "TRTDURD": 156,
    "ITTFL": "Y",
    "SAFFL": "Y",
    "PPFL": "Y",
    "FASFL": "Y",
    "EFFFL": "N",
    "COMPLFL": "Y",
    "COMPLIANCE": 88,
    "DISCONT": "N"
  },
  {
    "STUDYID": "ONC-2025-001",
    "USUBJID": "ONC-2025-001-005",
    "SUBJID": "005",
    "SITEID": "103",
    "AGE": 49,
    "AGEGR1": "<65",
    "AGEGR1N": 1,
    "AGEU": "YEARS",
    "SEX": "M",
    "RACE": "WHITE",
    "ETHNIC": "HISPANIC OR LATINO",
    "ARM": "Pembrolizumab 200mg",
    "ARMCD": "TRT",
    "TRT01P": "Pembrolizumab 200mg",
    "TRT01PN": 2,
    "TRT01A": "Pembrolizumab 200mg",
    "TRT01AN": 2,
    "TRTSDT": "2025-01-20",
    "TRTEDT": "2025-06-25",
    "TRTDURD": 157,
    "ITTFL": "Y",
    "SAFFL": "Y",
    "PPFL": "Y",
    "FASFL": "Y",
    "EFFFL": "N",
    "COMPLFL": "Y",
    "COMPLIANCE": 96,
    "DISCONT": "N"
  },
  {
    "STUDYID": "ONC-2025-001",
    "USUBJID": "ONC-2025-001-006",
    "SUBJID": "006",
    "SITEID": "103",
    "AGE": 62,
    "AGEGR1": "<65",
    "AGEGR1N": 1,
    "AGEU": "YEARS",
    "SEX": "F",
    "RACE": "WHITE",
    "ETHNIC": "HISPANIC OR LATINO",
    "ARM": "Pembrolizumab 200mg",
    "ARMCD": "TRT",
    "TRT01P": "Pembrolizumab 200mg",
    "TRT01PN": 2,
    "TRT01A": "Pembrolizumab 200mg",
    "TRT01AN": 2,
    "TRTSDT": "2025-01-22",
    "TRTEDT": "2025-06-28",
    "TRTDURD": 158,
    "ITTFL": "Y",
    "SAFFL": "Y",
    "PPFL": "Y",
    "FASFL": "Y",
    "EFFFL": "N",
    "COMPLFL": "Y",
    "COMPLIANCE": 95,
    "DISCONT": "N"
  },
  {
    "STUDYID": "ONC-2025-001",
    "USUBJID": "ONC-2025-001-007",
    "SUBJID": "007",
    "SITEID": "104",
    "AGE": 55,
    "AGEGR1": "<65",
    "AGEGR1N": 1,
    "AGEU": "YEARS",
    "SEX": "M",
    "RACE": "ASIAN",
    "ETHNIC": "HISPANIC OR LATINO",
    "ARM": "Placebo",
    "ARMCD": "PLAC",
    "TRT01P": "Placebo",
    "TRT01PN": 2,
    "TRT01A": "Placebo",
    "TRT01AN": 2,
    "TRTSDT": "2025-01-25",
    "TRTEDT": "2025-07-01",
    "TRTDURD": 158,
    "ITTFL": "Y",
    "SAFFL": "Y",
    "PPFL": "Y",
    "FASFL": "Y",
    "EFFFL": "N",
    "COMPLFL": "Y",
    "COMPLIANCE": 89,
    "DISCONT": "N"
  },
  {
    "STUDYID": "ONC-2025-001",
    "USUBJID": "ONC-2025-001-008",
    "SUBJID": "008",
    "SITEID": "104",
    "AGE": 67,
    "AGEGR1": ">=65",
    "AGEGR1N": 2,
    "AGEU": "YEARS",
    "SEX": "F",
    "RACE": "BLACK OR AFRICAN AMERICAN",
    "ETHNIC": "HISPANIC OR LATINO",
    "ARM": "Pembrolizumab 200mg",
    "ARMCD": "TRT",
    "TRT01P": "Pembrolizumab 200mg",
    "TRT01PN": 2,
    "TRT01A": "Pembrolizumab 200mg",
    "TRT01AN": 2,
    "TRTSDT": "2025-01-28",
    "TRTEDT": "2025-07-05",
    "TRTDURD": 159,
    "ITTFL": "Y",
    "SAFFL": "Y",
    "PPFL": "Y",
    "FASFL": "Y",
    "EFFFL": "N",
    "COMPLFL": "Y",
    "COMPLIANCE": 97,
    "DISCONT": "N"
  },
  {
    "STUDYID": "ONC-2025-001",
    "USUBJID": "ONC-2025-001-009",
    "SUBJID": "009",
    "SITEID": "105",
    "AGE": 43,
    "AGEGR1": "<65",
    "AGEGR1N": 1,
    "AGEU": "YEARS",
    "SEX": "M",
    "RACE": "WHITE",
    "ETHNIC": "HISPANIC OR LATINO",
    "ARM": "Placebo",
    "ARMCD": "PLAC",
    "TRT01P": "Placebo",
    "TRT01PN": 2,
    "TRT01A": "Placebo",
    "TRT01AN": 2,
    "TRTSDT": "2025-02-01",
    "TRTEDT": "2025-07-10",
    "TRTDURD": 160,
    "ITTFL": "Y",
    "SAFFL": "Y",
    "PPFL": "Y",
    "FASFL": "Y",
    "EFFFL": "N",
    "COMPLFL": "Y",
    "COMPLIANCE": 91,
    "DISCONT": "N"
  },
  {
    "STUDYID": "ONC-2025-001",
    "USUBJID": "ONC-2025-001-010",
    "SUBJID": "010",
    "SITEID": "10",
    "AGE": 50,
    "AGEGR1": "<65",
    "AGEGR1N": 1,
    "AGEU": "YEARS",
    "SEX": "M",
    "RACE": "WHITE",
    "ETHNIC": "HISPANIC OR LATINO",
    "ARM": "Active Drug",
    "ARMCD": "ACT",
    "TRT01P": "Active Drug",
    "TRT01PN": 2,
    "TRT01A": "Active Drug",
    "TRT01AN": 2,
    "TRTSDT": "2026-09-21",
    "TRTEDT": "2026-09-21",
    "TRTDURD": 1,
    "ITTFL": "Y",
    "SAFFL": "Y",
    "PPFL": "Y",
    "FASFL": "Y",
    "EFFFL": "N",
    "COMPLFL": "Y",
    "COMPLIANCE": 90,
    "DISCONT": "N"
  }
]