[
  {
    "STUDYID": "ONC-2025-001",
    "USUBJID": "ONC-2025-001-001",
    "PARAMCD": "TTF",
    "PARAM": "Time to Treatment Failure / Severe Event (Days)",
    "STARTDT": "2025-01-10",
    "ADT": "2025-06-15",
    "AVAL": 162,
    "AVALU": "DAYS",
    "CNSR": 1,
    "EVNTDESC": "Censored at Study Completion",
    "TRTP": "Pembrolizumab 200mg"
  },
  {
    "STUDYID": "ONC-2025-001",
    "USUBJID": "ONC-2025-001-002",
    "PARAMCD": "TTF",
    "PARAM": "Time to Treatment Failure / Severe Event (Days)",
    "STARTDT": "2025-01-12",
    "ADT": "2025-06-18",
    "AVAL": 162,
    "AVALU": "DAYS",
    "CNSR": 1,
    "EVNTDESC": "Censored at Study Completion",
    "TRTP": "Pembrolizumab 200mg"
  },
  {
    "STUDYID": "ONC-2025-001",
    "USUBJID": "ONC-2025-001-003",
    "PARAMCD": "TTF",
    "PARAM": "Time to Treatment Failure / Severe Event (Days)",
    "STARTDT": "2025-01-15",
    "ADT": "2025-06-20",
    "AVAL": 162,
    "AVALU": "DAYS",
    "CNSR": 1,
    "EVNTDESC": "Censored at Study Completion",
    "TRTP": "Placebo"
  },
  {
    "STUDYID": "ONC-2025-001",
    "USUBJID": "ONC-2025-001-004",
    "PARAMCD": "TTF",
    "PARAM": "Time to Treatment Failure / Severe Event (Days)",
    "STARTDT": "2025-01-18",
    "ADT": "2025-06-22",
    "AVAL": 162,
    "AVALU": "DAYS",
    "CNSR": 1,
    "EVNTDESC": "Censored at Study Completion",
    "TRTP": "Placebo"
  },
  {
    "STUDYID": "ONC-2025-001",
    "USUBJID": "ONC-2025-001-005",
    "PARAMCD": "TTF",
    "PARAM": "Time to Treatment Failure / Severe Event (Days)",
    "STARTDT": "2025-01-20",
    "ADT": "2025-06-25",
    "AVAL": 162,
    "AVALU": "DAYS",
    "CNSR": 1,
    "EVNTDESC": "Censored at Study Completion",
    "TRTP": "Pembrolizumab 200mg"
  },
  {
    "STUDYID": "ONC-2025-001",
    "USUBJID": "ONC-2025-001-006",
    "PARAMCD": "TTF",
    "PARAM": "Time to Treatment Failure / Severe Event (Days)",
    "STARTDT": "2025-01-22",
    "ADT": "2025-06-28",
    "AVAL": 162,
    "AVALU": "DAYS",
    "CNSR": 1,
    "EVNTDESC": "Censored at Study Completion",
    "TRTP": "Pembrolizumab 200mg"
  },
  {
    "STUDYID": "ONC-2025-001",
    "USUBJID": "ONC-2025-001-007",
    "PARAMCD": "TTF",
    "PARAM": "Time to Treatment Failure / Severe Event (Days)",
    "STARTDT": "2025-01-25",
    "ADT": "2025-07-01",
    "AVAL": 162,
    "AVALU": "DAYS",
    "CNSR": 1,
    "EVNTDESC": "Censored at Study Completion",
    "TRTP": "Placebo"
  },
  {
    "STUDYID": "ONC-2025-001",
    "USUBJID": "ONC-2025-001-008",
    "PARAMCD": "TTF",
    "PARAM": "Time to Treatment Failure / Severe Event (Days)",
    "STARTDT": "2025-01-28",
    "ADT": "2025-07-05",
    "AVAL": 162,
    "AVALU": "DAYS",
    "CNSR": 1,
    "EVNTDESC": "Censored at Study Completion",
    "TRTP": "Pembrolizumab 200mg"
  },
  {
    "STUDYID": "ONC-2025-001",
    "USUBJID": "ONC-2025-001-009",
    "PARAMCD": "TTF",
    "PARAM": "Time to Treatment Failure / Severe Event (Days)",
    "STARTDT": "2025-02-01",
    "ADT": "2025-07-10",
    "AVAL": 162,
    "AVALU": "DAYS",
    "CNSR": 1,
    "EVNTDESC": "Censored at Study Completion",
    "TRTP": "Placebo"
  },
  {
    "STUDYID": "ONC-2025-001",
    "USUBJID": "ONC-2025-001-010",
    "PARAMCD": "TTF",
    "PARAM": "Time to Treatment Failure / Severe Event (Days)",
    "STARTDT": "2026-09-22",
    "ADT": "2026-09-22",
    "AVAL": 162,
    "AVALU": "DAYS",
    "CNSR": 1,
    "EVNTDESC": "Censored at Study Completion",
    "TRTP": "Active Drug"
  }
]