[
  {
    "STUDYID": "ONC-2025-001",
    "DOMAIN": "AE",
    "USUBJID": "ONC-2025-001-001",
    "AESEQ": 1,
    "AETERM": "Nausea",
    "AELLT": "Nausea",
    "AEPT": "Nausea",
    "AESOC": "GASTROINTESTINAL DISORDERS",
    "AESEV": "MILD",
    "AEREL": "RELATED",
    "AESER": "N",
    "AESTDTC": "2025-01-15T10:00:00",
    "AEENDTC": "2025-01-18T18:00:00"
  },
  {
    "STUDYID": "ONC-2025-001",
    "DOMAIN": "AE",
    "USUBJID": "ONC-2025-001-001",
    "AESEQ": 2,
    "AETERM": "Fatigue",
    "AELLT": "Fatigue",
    "AEPT": "Fatigue",
    "AESOC": "GENERAL DISORDERS AND ADMINISTRATION SITE CONDITIONS",
    "AESEV": "MODERATE",
    "AEREL": "RELATED",
    "AESER": "N",
    "AESTDTC": "2025-02-01T08:00:00",
    "AEENDTC": ""
  },
  {
    "STUDYID": "ONC-2025-002",
    "DOMAIN": "AE",
    "USUBJID": "ONC-2025-001-002",
    "AESEQ": 3,
    "AETERM": "Headache",
    "AELLT": "Headache",
    "AEPT": "Headache",
    "AESOC": "NERVOUS SYSTEM DISORDERS",
    "AESEV": "MILD",
    "AEREL": "NOT RELATED",
    "AESER": "N",
    "AESTDTC": "2025-01-20T14:00:00",
    "AEENDTC": "2025-01-21T18:00:00"
  },
  {
    "STUDYID": "ONC-2025-003",
    "DOMAIN": "AE",
    "USUBJID": "ONC-2025-001-003",
    "AESEQ": 4,
    "AETERM": "Rash maculo-papular",
    "AELLT": "Rash maculo-papular",
    "AEPT": "Rash maculo-papular",
    "AESOC": "SKIN AND SUBCUTANEOUS TISSUE DISORDERS",
    "AESEV": "MODERATE",
    "AEREL": "RELATED",
    "AESER": "N",
    "AESTDTC": "2025-02-10T09:00:00",
    "AEENDTC": "2025-02-17T12:00:00"
  },
  {
    "STUDYID": "ONC-2025-005",
    "DOMAIN": "AE",
    "USUBJID": "ONC-2025-001-005",
    "AESEQ": 5,
    "AETERM": "Pyrexia",
    "AELLT": "Pyrexia",
    "AEPT": "Pyrexia",
    "AESOC": "GENERAL DISORDERS AND ADMINISTRATION SITE CONDITIONS",
    "AESEV": "MILD",
    "AEREL": "RELATED",
    "AESER": "N",
    "AESTDTC": "2025-02-14T11:00:00",
    "AEENDTC": "2025-02-16T17:00:00"
  },
  {
    "STUDYID": "ONC-2025-008",
    "DOMAIN": "AE",
    "USUBJID": "ONC-2025-001-008",
    "AESEQ": 6,
    "AETERM": "Diarrhea",
    "AELLT": "Diarrhea",
    "AEPT": "Diarrhea",
    "AESOC": "GASTROINTESTINAL DISORDERS",
    "AESEV": "MODERATE",
    "AEREL": "RELATED",
    "AESER": "N",
    "AESTDTC": "2025-02-22T08:00:00",
    "AEENDTC": "2025-02-25T20:00:00"
  },
  {
    "STUDYID": "ONC-2025-010",
    "DOMAIN": "AE",
    "USUBJID": "ONC-2025-001-010",
    "AESEQ": 7,
    "AETERM": "Pruritus",
    "AELLT": "Pruritus",
    "AEPT": "Pruritus",
    "AESOC": "SKIN AND SUBCUTANEOUS TISSUE DISORDERS",
    "AESEV": "MILD",
    "AEREL": "RELATED",
    "AESER": "N",
    "AESTDTC": "2025-03-01T10:00:00",
    "AEENDTC": ""
  }
]