[
  {
    "STUDYID": "ONC-2025-001",
    "DOMAIN": "CM",
    "USUBJID": "ONC-2025-001-001",
    "CMSEQ": 1,
    "CMTRT": "Metformin Hydrochloride",
    "CMDECOD": "METFORMIN",
    "CMCLAS": "BIGUANIDES",
    "CMDOSE": 500,
    "CMDOSU": "mg",
    "CMROUTE": "ORAL",
    "CMDOSFRQ": "BID",
    "CMSTDTC": "2024-06-01",
    "CMENDTC": "",
    "CMENRTP": "ONGOING"
  },
  {
    "STUDYID": "ONC-2025-001",
    "DOMAIN": "CM",
    "USUBJID": "ONC-2025-001-001",
    "CMSEQ": 2,
    "CMTRT": "Atorvastatin Calcium",
    "CMDECOD": "ATORVASTATIN",
    "CMCLAS": "HMG-COA REDUCTASE INHIBITORS",
    "CMDOSE": 20,
    "CMDOSU": "mg",
    "CMROUTE": "ORAL",
    "CMDOSFRQ": "QD",
    "CMSTDTC": "2024-06-01",
    "CMENDTC": "",
    "CMENRTP": "ONGOING"
  },
  {
    "STUDYID": "ONC-2025-001",
    "DOMAIN": "CM",
    "USUBJID": "ONC-2025-001-002",
    "CMSEQ": 3,
    "CMTRT": "Metformin Hydrochloride",
    "CMDECOD": "METFORMIN",
    "CMCLAS": "BIGUANIDES",
    "CMDOSE": 500,
    "CMDOSU": "mg",
    "CMROUTE": "ORAL",
    "CMDOSFRQ": "BID",
    "CMSTDTC": "2024-06-01",
    "CMENDTC": "",
    "CMENRTP": "ONGOING"
  },
  {
    "STUDYID": "ONC-2025-001",
    "DOMAIN": "CM",
    "USUBJID": "ONC-2025-001-002",
    "CMSEQ": 4,
    "CMTRT": "Atorvastatin Calcium",
    "CMDECOD": "ATORVASTATIN",
    "CMCLAS": "HMG-COA REDUCTASE INHIBITORS",
    "CMDOSE": 20,
    "CMDOSU": "mg",
    "CMROUTE": "ORAL",
    "CMDOSFRQ": "QD",
    "CMSTDTC": "2024-06-01",
    "CMENDTC": "",
    "CMENRTP": "ONGOING"
  },
  {
    "STUDYID": "ONC-2025-001",
    "DOMAIN": "CM",
    "USUBJID": "ONC-2025-001-003",
    "CMSEQ": 5,
    "CMTRT": "Metformin Hydrochloride",
    "CMDECOD": "METFORMIN",
    "CMCLAS": "BIGUANIDES",
    "CMDOSE": 500,
    "CMDOSU": "mg",
    "CMROUTE": "ORAL",
    "CMDOSFRQ": "BID",
    "CMSTDTC": "2024-06-01",
    "CMENDTC": "",
    "CMENRTP": "ONGOING"
  },
  {
    "STUDYID": "ONC-2025-001",
    "DOMAIN": "CM",
    "USUBJID": "ONC-2025-001-003",
    "CMSEQ": 6,
    "CMTRT": "Atorvastatin Calcium",
    "CMDECOD": "ATORVASTATIN",
    "CMCLAS": "HMG-COA REDUCTASE INHIBITORS",
    "CMDOSE": 20,
    "CMDOSU": "mg",
    "CMROUTE": "ORAL",
    "CMDOSFRQ": "QD",
    "CMSTDTC": "2024-06-01",
    "CMENDTC": "",
    "CMENRTP": "ONGOING"
  },
  {
    "STUDYID": "ONC-2025-001",
    "DOMAIN": "CM",
    "USUBJID": "ONC-2025-001-004",
    "CMSEQ": 7,
    "CMTRT": "Metformin Hydrochloride",
    "CMDECOD": "METFORMIN",
    "CMCLAS": "BIGUANIDES",
    "CMDOSE": 500,
    "CMDOSU": "mg",
    "CMROUTE": "ORAL",
    "CMDOSFRQ": "BID",
    "CMSTDTC": "2024-06-01",
    "CMENDTC": "",
    "CMENRTP": "ONGOING"
  },
  {
    "STUDYID": "ONC-2025-001",
    "DOMAIN": "CM",
    "USUBJID": "ONC-2025-001-004",
    "CMSEQ": 8,
    "CMTRT": "Atorvastatin Calcium",
    "CMDECOD": "ATORVASTATIN",
    "CMCLAS": "HMG-COA REDUCTASE INHIBITORS",
    "CMDOSE": 20,
    "CMDOSU": "mg",
    "CMROUTE": "ORAL",
    "CMDOSFRQ": "QD",
    "CMSTDTC": "2024-06-01",
    "CMENDTC": "",
    "CMENRTP": "ONGOING"
  },
  {
    "STUDYID": "ONC-2025-001",
    "DOMAIN": "CM",
    "USUBJID": "ONC-2025-001-005",
    "CMSEQ": 9,
    "CMTRT": "Metformin Hydrochloride",
    "CMDECOD": "METFORMIN",
    "CMCLAS": "BIGUANIDES",
    "CMDOSE": 500,
    "CMDOSU": "mg",
    "CMROUTE": "ORAL",
    "CMDOSFRQ": "BID",
    "CMSTDTC": "2024-06-01",
    "CMENDTC": "",
    "CMENRTP": "ONGOING"
  },
  {
    "STUDYID": "ONC-2025-001",
    "DOMAIN": "CM",
    "USUBJID": "ONC-2025-001-005",
    "CMSEQ": 10,
    "CMTRT": "Atorvastatin Calcium",
    "CMDECOD": "ATORVASTATIN",
    "CMCLAS": "HMG-COA REDUCTASE INHIBITORS",
    "CMDOSE": 20,
    "CMDOSU": "mg",
    "CMROUTE": "ORAL",
    "CMDOSFRQ": "QD",
    "CMSTDTC": "2024-06-01",
    "CMENDTC": "",
    "CMENRTP": "ONGOING"
  },
  {
    "STUDYID": "ONC-2025-001",
    "DOMAIN": "CM",
    "USUBJID": "ONC-2025-001-006",
    "CMSEQ": 11,
    "CMTRT": "Metformin Hydrochloride",
    "CMDECOD": "METFORMIN",
    "CMCLAS": "BIGUANIDES",
    "CMDOSE": 500,
    "CMDOSU": "mg",
    "CMROUTE": "ORAL",
    "CMDOSFRQ": "BID",
    "CMSTDTC": "2024-06-01",
    "CMENDTC": "",
    "CMENRTP": "ONGOING"
  },
  {
    "STUDYID": "ONC-2025-001",
    "DOMAIN": "CM",
    "USUBJID": "ONC-2025-001-006",
    "CMSEQ": 12,
    "CMTRT": "Atorvastatin Calcium",
    "CMDECOD": "ATORVASTATIN",
    "CMCLAS": "HMG-COA REDUCTASE INHIBITORS",
    "CMDOSE": 20,
    "CMDOSU": "mg",
    "CMROUTE": "ORAL",
    "CMDOSFRQ": "QD",
    "CMSTDTC": "2024-06-01",
    "CMENDTC": "",
    "CMENRTP": "ONGOING"
  },
  {
    "STUDYID": "ONC-2025-001",
    "DOMAIN": "CM",
    "USUBJID": "ONC-2025-001-007",
    "CMSEQ": 13,
    "CMTRT": "Metformin Hydrochloride",
    "CMDECOD": "METFORMIN",
    "CMCLAS": "BIGUANIDES",
    "CMDOSE": 500,
    "CMDOSU": "mg",
    "CMROUTE": "ORAL",
    "CMDOSFRQ": "BID",
    "CMSTDTC": "2024-06-01",
    "CMENDTC": "",
    "CMENRTP": "ONGOING"
  },
  {
    "STUDYID": "ONC-2025-001",
    "DOMAIN": "CM",
    "USUBJID": "ONC-2025-001-007",
    "CMSEQ": 14,
    "CMTRT": "Atorvastatin Calcium",
    "CMDECOD": "ATORVASTATIN",
    "CMCLAS": "HMG-COA REDUCTASE INHIBITORS",
    "CMDOSE": 20,
    "CMDOSU": "mg",
    "CMROUTE": "ORAL",
    "CMDOSFRQ": "QD",
    "CMSTDTC": "2024-06-01",
    "CMENDTC": "",
    "CMENRTP": "ONGOING"
  },
  {
    "STUDYID": "ONC-2025-001",
    "DOMAIN": "CM",
    "USUBJID": "ONC-2025-001-008",
    "CMSEQ": 15,
    "CMTRT": "Metformin Hydrochloride",
    "CMDECOD": "METFORMIN",
    "CMCLAS": "BIGUANIDES",
    "CMDOSE": 500,
    "CMDOSU": "mg",
    "CMROUTE": "ORAL",
    "CMDOSFRQ": "BID",
    "CMSTDTC": "2024-06-01",
    "CMENDTC": "",
    "CMENRTP": "ONGOING"
  },
  {
    "STUDYID": "ONC-2025-001",
    "DOMAIN": "CM",
    "USUBJID": "ONC-2025-001-008",
    "CMSEQ": 16,
    "CMTRT": "Atorvastatin Calcium",
    "CMDECOD": "ATORVASTATIN",
    "CMCLAS": "HMG-COA REDUCTASE INHIBITORS",
    "CMDOSE": 20,
    "CMDOSU": "mg",
    "CMROUTE": "ORAL",
    "CMDOSFRQ": "QD",
    "CMSTDTC": "2024-06-01",
    "CMENDTC": "",
    "CMENRTP": "ONGOING"
  },
  {
    "STUDYID": "ONC-2025-001",
    "DOMAIN": "CM",
    "USUBJID": "ONC-2025-001-009",
    "CMSEQ": 17,
    "CMTRT": "Metformin Hydrochloride",
    "CMDECOD": "METFORMIN",
    "CMCLAS": "BIGUANIDES",
    "CMDOSE": 500,
    "CMDOSU": "mg",
    "CMROUTE": "ORAL",
    "CMDOSFRQ": "BID",
    "CMSTDTC": "2024-06-01",
    "CMENDTC": "",
    "CMENRTP": "ONGOING"
  },
  {
    "STUDYID": "ONC-2025-001",
    "DOMAIN": "CM",
    "USUBJID": "ONC-2025-001-009",
    "CMSEQ": 18,
    "CMTRT": "Atorvastatin Calcium",
    "CMDECOD": "ATORVASTATIN",
    "CMCLAS": "HMG-COA REDUCTASE INHIBITORS",
    "CMDOSE": 20,
    "CMDOSU": "mg",
    "CMROUTE": "ORAL",
    "CMDOSFRQ": "QD",
    "CMSTDTC": "2024-06-01",
    "CMENDTC": "",
    "CMENRTP": "ONGOING"
  },
  {
    "STUDYID": "ONC-2025-001",
    "DOMAIN": "CM",
    "USUBJID": "ONC-2025-001-010",
    "CMSEQ": 19,
    "CMTRT": "Metformin Hydrochloride",
    "CMDECOD": "METFORMIN",
    "CMCLAS": "BIGUANIDES",
    "CMDOSE": 500,
    "CMDOSU": "mg",
    "CMROUTE": "ORAL",
    "CMDOSFRQ": "BID",
    "CMSTDTC": "2024-06-01",
    "CMENDTC": "",
    "CMENRTP": "ONGOING"
  },
  {
    "STUDYID": "ONC-2025-001",
    "DOMAIN": "CM",
    "USUBJID": "ONC-2025-001-010",
    "CMSEQ": 20,
    "CMTRT": "Atorvastatin Calcium",
    "CMDECOD": "ATORVASTATIN",
    "CMCLAS": "HMG-COA REDUCTASE INHIBITORS",
    "CMDOSE": 20,
    "CMDOSU": "mg",
    "CMROUTE": "ORAL",
    "CMDOSFRQ": "QD",
    "CMSTDTC": "2024-06-01",
    "CMENDTC": "",
    "CMENRTP": "ONGOING"
  }
]