[
  {
    "STUDYID": "ONC-2025-001",
    "DOMAIN": "DM",
    "USUBJID": "ONC-2025-001-001",
    "SUBJID": "001",
    "SITEID": "101",
    "RFSTDTC": "2025-01-10T09:00:00",
    "RFENDTC": "2025-06-15T17:00:00",
    "AGE": 58,
    "AGEU": "YEARS",
    "SEX": "M",
    "RACE": "WHITE",
    "ETHNIC": "HISPANIC OR LATINO",
    "ARMCD": "TRT",
    "ARM": "Pembrolizumab 200mg",
    "COUNTRY": "USA",
    "_hasDosed": 1,
    "_hasMajorViolation": 0,
    "_compliance": 98
  },
  {
    "STUDYID": "ONC-2025-001",
    "DOMAIN": "DM",
    "USUBJID": "ONC-2025-001-002",
    "SUBJID": "002",
    "SITEID": "101",
    "RFSTDTC": "2025-01-12T09:00:00",
    "RFENDTC": "2025-06-18T17:00:00",
    "AGE": 64,
    "AGEU": "YEARS",
    "SEX": "F",
    "RACE": "ASIAN",
    "ETHNIC": "HISPANIC OR LATINO",
    "ARMCD": "TRT",
    "ARM": "Pembrolizumab 200mg",
    "COUNTRY": "USA",
    "_hasDosed": 1,
    "_hasMajorViolation": 0,
    "_compliance": 94
  },
  {
    "STUDYID": "ONC-2025-001",
    "DOMAIN": "DM",
    "USUBJID": "ONC-2025-001-003",
    "SUBJID": "003",
    "SITEID": "102",
    "RFSTDTC": "2025-01-15T09:00:00",
    "RFENDTC": "2025-06-20T17:00:00",
    "AGE": 52,
    "AGEU": "YEARS",
    "SEX": "M",
    "RACE": "BLACK OR AFRICAN AMERICAN",
    "ETHNIC": "HISPANIC OR LATINO",
    "ARMCD": "PLAC",
    "ARM": "Placebo",
    "COUNTRY": "USA",
    "_hasDosed": 1,
    "_hasMajorViolation": 0,
    "_compliance": 92
  },
  {
    "STUDYID": "ONC-2025-001",
    "DOMAIN": "DM",
    "USUBJID": "ONC-2025-001-004",
    "SUBJID": "004",
    "SITEID": "102",
    "RFSTDTC": "2025-01-18T09:00:00",
    "RFENDTC": "2025-06-22T17:00:00",
    "AGE": 71,
    "AGEU": "YEARS",
    "SEX": "F",
    "RACE": "WHITE",
    "ETHNIC": "HISPANIC OR LATINO",
    "ARMCD": "PLAC",
    "ARM": "Placebo",
    "COUNTRY": "USA",
    "_hasDosed": 1,
    "_hasMajorViolation": 0,
    "_compliance": 88
  },
  {
    "STUDYID": "ONC-2025-001",
    "DOMAIN": "DM",
    "USUBJID": "ONC-2025-001-005",
    "SUBJID": "005",
    "SITEID": "103",
    "RFSTDTC": "2025-01-20T09:00:00",
    "RFENDTC": "2025-06-25T17:00:00",
    "AGE": 49,
    "AGEU": "YEARS",
    "SEX": "M",
    "RACE": "WHITE",
    "ETHNIC": "HISPANIC OR LATINO",
    "ARMCD": "TRT",
    "ARM": "Pembrolizumab 200mg",
    "COUNTRY": "USA",
    "_hasDosed": 1,
    "_hasMajorViolation": 0,
    "_compliance": 96
  },
  {
    "STUDYID": "ONC-2025-001",
    "DOMAIN": "DM",
    "USUBJID": "ONC-2025-001-006",
    "SUBJID": "006",
    "SITEID": "103",
    "RFSTDTC": "2025-01-22T09:00:00",
    "RFENDTC": "2025-06-28T17:00:00",
    "AGE": 62,
    "AGEU": "YEARS",
    "SEX": "F",
    "RACE": "WHITE",
    "ETHNIC": "HISPANIC OR LATINO",
    "ARMCD": "TRT",
    "ARM": "Pembrolizumab 200mg",
    "COUNTRY": "USA",
    "_hasDosed": 1,
    "_hasMajorViolation": 0,
    "_compliance": 95
  },
  {
    "STUDYID": "ONC-2025-001",
    "DOMAIN": "DM",
    "USUBJID": "ONC-2025-001-007",
    "SUBJID": "007",
    "SITEID": "104",
    "RFSTDTC": "2025-01-25T09:00:00",
    "RFENDTC": "2025-07-01T17:00:00",
    "AGE": 55,
    "AGEU": "YEARS",
    "SEX": "M",
    "RACE": "ASIAN",
    "ETHNIC": "HISPANIC OR LATINO",
    "ARMCD": "PLAC",
    "ARM": "Placebo",
    "COUNTRY": "USA",
    "_hasDosed": 1,
    "_hasMajorViolation": 0,
    "_compliance": 89
  },
  {
    "STUDYID": "ONC-2025-001",
    "DOMAIN": "DM",
    "USUBJID": "ONC-2025-001-008",
    "SUBJID": "008",
    "SITEID": "104",
    "RFSTDTC": "2025-01-28T09:00:00",
    "RFENDTC": "2025-07-05T17:00:00",
    "AGE": 67,
    "AGEU": "YEARS",
    "SEX": "F",
    "RACE": "BLACK OR AFRICAN AMERICAN",
    "ETHNIC": "HISPANIC OR LATINO",
    "ARMCD": "TRT",
    "ARM": "Pembrolizumab 200mg",
    "COUNTRY": "USA",
    "_hasDosed": 1,
    "_hasMajorViolation": 0,
    "_compliance": 97
  },
  {
    "STUDYID": "ONC-2025-001",
    "DOMAIN": "DM",
    "USUBJID": "ONC-2025-001-009",
    "SUBJID": "009",
    "SITEID": "105",
    "RFSTDTC": "2025-02-01T09:00:00",
    "RFENDTC": "2025-07-10T17:00:00",
    "AGE": 43,
    "AGEU": "YEARS",
    "SEX": "M",
    "RACE": "WHITE",
    "ETHNIC": "HISPANIC OR LATINO",
    "ARMCD": "PLAC",
    "ARM": "Placebo",
    "COUNTRY": "USA",
    "_hasDosed": 1,
    "_hasMajorViolation": 0,
    "_compliance": 91
  },
  {
    "STUDYID": "ONC-2025-001",
    "DOMAIN": "DM",
    "USUBJID": "ONC-2025-001-010",
    "SUBJID": "010",
    "SITEID": "10",
    "RFSTDTC": "2026-09-22",
    "RFENDTC": "2026-09-22",
    "AGE": 50,
    "AGEU": "YEARS",
    "SEX": "M",
    "RACE": "WHITE",
    "ETHNIC": "HISPANIC OR LATINO",
    "ARMCD": "ACT",
    "ARM": "Active Drug",
    "COUNTRY": "USA",
    "_hasDosed": 1,
    "_hasMajorViolation": 0,
    "_compliance": 90
  }
]