[
  {
    "STUDYID": "ONC-2025-001",
    "DOMAIN": "DS",
    "USUBJID": "ONC-2025-001-001",
    "DSSEQ": 1,
    "DSTERM": "COMPLETED TREATMENT PERIOD",
    "DSDECOD": "COMPLETED",
    "DSCAT": "DISPOSITION EVENT",
    "EPOCH": "TREATMENT",
    "DSSTDTC": "2025-06-20"
  },
  {
    "STUDYID": "ONC-2025-001",
    "DOMAIN": "DS",
    "USUBJID": "ONC-2025-001-002",
    "DSSEQ": 2,
    "DSTERM": "COMPLETED TREATMENT PERIOD",
    "DSDECOD": "COMPLETED",
    "DSCAT": "DISPOSITION EVENT",
    "EPOCH": "TREATMENT",
    "DSSTDTC": "2025-06-20"
  },
  {
    "STUDYID": "ONC-2025-001",
    "DOMAIN": "DS",
    "USUBJID": "ONC-2025-001-003",
    "DSSEQ": 3,
    "DSTERM": "COMPLETED TREATMENT PERIOD",
    "DSDECOD": "COMPLETED",
    "DSCAT": "DISPOSITION EVENT",
    "EPOCH": "TREATMENT",
    "DSSTDTC": "2025-06-20"
  },
  {
    "STUDYID": "ONC-2025-001",
    "DOMAIN": "DS",
    "USUBJID": "ONC-2025-001-004",
    "DSSEQ": 4,
    "DSTERM": "COMPLETED TREATMENT PERIOD",
    "DSDECOD": "COMPLETED",
    "DSCAT": "DISPOSITION EVENT",
    "EPOCH": "TREATMENT",
    "DSSTDTC": "2025-06-20"
  },
  {
    "STUDYID": "ONC-2025-001",
    "DOMAIN": "DS",
    "USUBJID": "ONC-2025-001-005",
    "DSSEQ": 5,
    "DSTERM": "COMPLETED TREATMENT PERIOD",
    "DSDECOD": "COMPLETED",
    "DSCAT": "DISPOSITION EVENT",
    "EPOCH": "TREATMENT",
    "DSSTDTC": "2025-06-20"
  },
  {
    "STUDYID": "ONC-2025-001",
    "DOMAIN": "DS",
    "USUBJID": "ONC-2025-001-006",
    "DSSEQ": 6,
    "DSTERM": "COMPLETED TREATMENT PERIOD",
    "DSDECOD": "COMPLETED",
    "DSCAT": "DISPOSITION EVENT",
    "EPOCH": "TREATMENT",
    "DSSTDTC": "2025-06-20"
  },
  {
    "STUDYID": "ONC-2025-001",
    "DOMAIN": "DS",
    "USUBJID": "ONC-2025-001-007",
    "DSSEQ": 7,
    "DSTERM": "COMPLETED TREATMENT PERIOD",
    "DSDECOD": "COMPLETED",
    "DSCAT": "DISPOSITION EVENT",
    "EPOCH": "TREATMENT",
    "DSSTDTC": "2025-06-20"
  },
  {
    "STUDYID": "ONC-2025-001",
    "DOMAIN": "DS",
    "USUBJID": "ONC-2025-001-008",
    "DSSEQ": 8,
    "DSTERM": "COMPLETED TREATMENT PERIOD",
    "DSDECOD": "COMPLETED",
    "DSCAT": "DISPOSITION EVENT",
    "EPOCH": "TREATMENT",
    "DSSTDTC": "2025-06-20"
  },
  {
    "STUDYID": "ONC-2025-001",
    "DOMAIN": "DS",
    "USUBJID": "ONC-2025-001-009",
    "DSSEQ": 9,
    "DSTERM": "COMPLETED TREATMENT PERIOD",
    "DSDECOD": "COMPLETED",
    "DSCAT": "DISPOSITION EVENT",
    "EPOCH": "TREATMENT",
    "DSSTDTC": "2025-06-20"
  },
  {
    "STUDYID": "ONC-2025-001",
    "DOMAIN": "DS",
    "USUBJID": "ONC-2025-001-010",
    "DSSEQ": 10,
    "DSTERM": "COMPLETED TREATMENT PERIOD",
    "DSDECOD": "COMPLETED",
    "DSCAT": "DISPOSITION EVENT",
    "EPOCH": "TREATMENT",
    "DSSTDTC": "2025-06-20"
  }
]