[
  {
    "STUDYID": "ONC-2025-001",
    "DOMAIN": "EG",
    "USUBJID": "ONC-2025-001-001",
    "EGSEQ": 1,
    "EGTESTCD": "QTCF",
    "EGTEST": "QTcF Interval Fridericia",
    "EGORRES": "412",
    "EGSTRESN": 412,
    "EGSTRESU": "ms",
    "EGSTRESC": "NORMAL",
    "VISIT": "Baseline",
    "VISITNUM": 2,
    "EGDTC": "2025-01-10T09:30:00"
  },
  {
    "STUDYID": "ONC-2025-001",
    "DOMAIN": "EG",
    "USUBJID": "ONC-2025-001-001",
    "EGSEQ": 2,
    "EGTESTCD": "QTCF",
    "EGTEST": "QTcF Interval Fridericia",
    "EGORRES": "418",
    "EGSTRESN": 418,
    "EGSTRESU": "ms",
    "EGSTRESC": "NORMAL",
    "VISIT": "Week 12",
    "VISITNUM": 5,
    "EGDTC": "2025-04-04T10:15:00"
  },
  {
    "STUDYID": "ONC-2025-001",
    "DOMAIN": "EG",
    "USUBJID": "ONC-2025-001-002",
    "EGSEQ": 3,
    "EGTESTCD": "QTCF",
    "EGTEST": "QTcF Interval Fridericia",
    "EGORRES": "412",
    "EGSTRESN": 412,
    "EGSTRESU": "ms",
    "EGSTRESC": "NORMAL",
    "VISIT": "Baseline",
    "VISITNUM": 2,
    "EGDTC": "2025-01-10T09:30:00"
  },
  {
    "STUDYID": "ONC-2025-001",
    "DOMAIN": "EG",
    "USUBJID": "ONC-2025-001-002",
    "EGSEQ": 4,
    "EGTESTCD": "QTCF",
    "EGTEST": "QTcF Interval Fridericia",
    "EGORRES": "418",
    "EGSTRESN": 418,
    "EGSTRESU": "ms",
    "EGSTRESC": "NORMAL",
    "VISIT": "Week 12",
    "VISITNUM": 5,
    "EGDTC": "2025-04-04T10:15:00"
  },
  {
    "STUDYID": "ONC-2025-001",
    "DOMAIN": "EG",
    "USUBJID": "ONC-2025-001-003",
    "EGSEQ": 5,
    "EGTESTCD": "QTCF",
    "EGTEST": "QTcF Interval Fridericia",
    "EGORRES": "412",
    "EGSTRESN": 412,
    "EGSTRESU": "ms",
    "EGSTRESC": "NORMAL",
    "VISIT": "Baseline",
    "VISITNUM": 2,
    "EGDTC": "2025-01-10T09:30:00"
  },
  {
    "STUDYID": "ONC-2025-001",
    "DOMAIN": "EG",
    "USUBJID": "ONC-2025-001-003",
    "EGSEQ": 6,
    "EGTESTCD": "QTCF",
    "EGTEST": "QTcF Interval Fridericia",
    "EGORRES": "418",
    "EGSTRESN": 418,
    "EGSTRESU": "ms",
    "EGSTRESC": "NORMAL",
    "VISIT": "Week 12",
    "VISITNUM": 5,
    "EGDTC": "2025-04-04T10:15:00"
  },
  {
    "STUDYID": "ONC-2025-001",
    "DOMAIN": "EG",
    "USUBJID": "ONC-2025-001-004",
    "EGSEQ": 7,
    "EGTESTCD": "QTCF",
    "EGTEST": "QTcF Interval Fridericia",
    "EGORRES": "412",
    "EGSTRESN": 412,
    "EGSTRESU": "ms",
    "EGSTRESC": "NORMAL",
    "VISIT": "Baseline",
    "VISITNUM": 2,
    "EGDTC": "2025-01-10T09:30:00"
  },
  {
    "STUDYID": "ONC-2025-001",
    "DOMAIN": "EG",
    "USUBJID": "ONC-2025-001-004",
    "EGSEQ": 8,
    "EGTESTCD": "QTCF",
    "EGTEST": "QTcF Interval Fridericia",
    "EGORRES": "418",
    "EGSTRESN": 418,
    "EGSTRESU": "ms",
    "EGSTRESC": "NORMAL",
    "VISIT": "Week 12",
    "VISITNUM": 5,
    "EGDTC": "2025-04-04T10:15:00"
  },
  {
    "STUDYID": "ONC-2025-001",
    "DOMAIN": "EG",
    "USUBJID": "ONC-2025-001-005",
    "EGSEQ": 9,
    "EGTESTCD": "QTCF",
    "EGTEST": "QTcF Interval Fridericia",
    "EGORRES": "412",
    "EGSTRESN": 412,
    "EGSTRESU": "ms",
    "EGSTRESC": "NORMAL",
    "VISIT": "Baseline",
    "VISITNUM": 2,
    "EGDTC": "2025-01-10T09:30:00"
  },
  {
    "STUDYID": "ONC-2025-001",
    "DOMAIN": "EG",
    "USUBJID": "ONC-2025-001-005",
    "EGSEQ": 10,
    "EGTESTCD": "QTCF",
    "EGTEST": "QTcF Interval Fridericia",
    "EGORRES": "418",
    "EGSTRESN": 418,
    "EGSTRESU": "ms",
    "EGSTRESC": "NORMAL",
    "VISIT": "Week 12",
    "VISITNUM": 5,
    "EGDTC": "2025-04-04T10:15:00"
  },
  {
    "STUDYID": "ONC-2025-001",
    "DOMAIN": "EG",
    "USUBJID": "ONC-2025-001-006",
    "EGSEQ": 11,
    "EGTESTCD": "QTCF",
    "EGTEST": "QTcF Interval Fridericia",
    "EGORRES": "412",
    "EGSTRESN": 412,
    "EGSTRESU": "ms",
    "EGSTRESC": "NORMAL",
    "VISIT": "Baseline",
    "VISITNUM": 2,
    "EGDTC": "2025-01-10T09:30:00"
  },
  {
    "STUDYID": "ONC-2025-001",
    "DOMAIN": "EG",
    "USUBJID": "ONC-2025-001-006",
    "EGSEQ": 12,
    "EGTESTCD": "QTCF",
    "EGTEST": "QTcF Interval Fridericia",
    "EGORRES": "418",
    "EGSTRESN": 418,
    "EGSTRESU": "ms",
    "EGSTRESC": "NORMAL",
    "VISIT": "Week 12",
    "VISITNUM": 5,
    "EGDTC": "2025-04-04T10:15:00"
  },
  {
    "STUDYID": "ONC-2025-001",
    "DOMAIN": "EG",
    "USUBJID": "ONC-2025-001-007",
    "EGSEQ": 13,
    "EGTESTCD": "QTCF",
    "EGTEST": "QTcF Interval Fridericia",
    "EGORRES": "412",
    "EGSTRESN": 412,
    "EGSTRESU": "ms",
    "EGSTRESC": "NORMAL",
    "VISIT": "Baseline",
    "VISITNUM": 2,
    "EGDTC": "2025-01-10T09:30:00"
  },
  {
    "STUDYID": "ONC-2025-001",
    "DOMAIN": "EG",
    "USUBJID": "ONC-2025-001-007",
    "EGSEQ": 14,
    "EGTESTCD": "QTCF",
    "EGTEST": "QTcF Interval Fridericia",
    "EGORRES": "418",
    "EGSTRESN": 418,
    "EGSTRESU": "ms",
    "EGSTRESC": "NORMAL",
    "VISIT": "Week 12",
    "VISITNUM": 5,
    "EGDTC": "2025-04-04T10:15:00"
  },
  {
    "STUDYID": "ONC-2025-001",
    "DOMAIN": "EG",
    "USUBJID": "ONC-2025-001-008",
    "EGSEQ": 15,
    "EGTESTCD": "QTCF",
    "EGTEST": "QTcF Interval Fridericia",
    "EGORRES": "412",
    "EGSTRESN": 412,
    "EGSTRESU": "ms",
    "EGSTRESC": "NORMAL",
    "VISIT": "Baseline",
    "VISITNUM": 2,
    "EGDTC": "2025-01-10T09:30:00"
  },
  {
    "STUDYID": "ONC-2025-001",
    "DOMAIN": "EG",
    "USUBJID": "ONC-2025-001-008",
    "EGSEQ": 16,
    "EGTESTCD": "QTCF",
    "EGTEST": "QTcF Interval Fridericia",
    "EGORRES": "418",
    "EGSTRESN": 418,
    "EGSTRESU": "ms",
    "EGSTRESC": "NORMAL",
    "VISIT": "Week 12",
    "VISITNUM": 5,
    "EGDTC": "2025-04-04T10:15:00"
  },
  {
    "STUDYID": "ONC-2025-001",
    "DOMAIN": "EG",
    "USUBJID": "ONC-2025-001-009",
    "EGSEQ": 17,
    "EGTESTCD": "QTCF",
    "EGTEST": "QTcF Interval Fridericia",
    "EGORRES": "412",
    "EGSTRESN": 412,
    "EGSTRESU": "ms",
    "EGSTRESC": "NORMAL",
    "VISIT": "Baseline",
    "VISITNUM": 2,
    "EGDTC": "2025-01-10T09:30:00"
  },
  {
    "STUDYID": "ONC-2025-001",
    "DOMAIN": "EG",
    "USUBJID": "ONC-2025-001-009",
    "EGSEQ": 18,
    "EGTESTCD": "QTCF",
    "EGTEST": "QTcF Interval Fridericia",
    "EGORRES": "418",
    "EGSTRESN": 418,
    "EGSTRESU": "ms",
    "EGSTRESC": "NORMAL",
    "VISIT": "Week 12",
    "VISITNUM": 5,
    "EGDTC": "2025-04-04T10:15:00"
  },
  {
    "STUDYID": "ONC-2025-001",
    "DOMAIN": "EG",
    "USUBJID": "ONC-2025-001-010",
    "EGSEQ": 19,
    "EGTESTCD": "QTCF",
    "EGTEST": "QTcF Interval Fridericia",
    "EGORRES": "412",
    "EGSTRESN": 412,
    "EGSTRESU": "ms",
    "EGSTRESC": "NORMAL",
    "VISIT": "Baseline",
    "VISITNUM": 2,
    "EGDTC": "2025-01-10T09:30:00"
  },
  {
    "STUDYID": "ONC-2025-001",
    "DOMAIN": "EG",
    "USUBJID": "ONC-2025-001-010",
    "EGSEQ": 20,
    "EGTESTCD": "QTCF",
    "EGTEST": "QTcF Interval Fridericia",
    "EGORRES": "418",
    "EGSTRESN": 418,
    "EGSTRESU": "ms",
    "EGSTRESC": "NORMAL",
    "VISIT": "Week 12",
    "VISITNUM": 5,
    "EGDTC": "2025-04-04T10:15:00"
  }
]