[
  {
    "STUDYID": "ONC-2025-001",
    "DOMAIN": "LB",
    "USUBJID": "ONC-2025-001-001",
    "LBSEQ": 1,
    "LBTESTCD": "SYSBP",
    "LBTEST": "Systolic Blood Pressure",
    "LBCAT": "CHEMISTRY",
    "LBORRES": "122",
    "LBORRESU": "mmHg",
    "LBSTRESC": "122",
    "LBSTRESN": 122,
    "LBSTRESU": "mmHg",
    "LBSTNRLO": 0,
    "LBSTNRHI": 100,
    "LBNRIND": "HIGH",
    "VISITNUM": 2,
    "VISIT": "Baseline",
    "LBDTC": "2025-01-10T08:30:00"
  },
  {
    "STUDYID": "ONC-2025-001",
    "DOMAIN": "LB",
    "USUBJID": "ONC-2025-001-001",
    "LBSEQ": 2,
    "LBTESTCD": "DIABP",
    "LBTEST": "Diastolic Blood Pressure",
    "LBCAT": "CHEMISTRY",
    "LBORRES": "78",
    "LBORRESU": "mmHg",
    "LBSTRESC": "78",
    "LBSTRESN": 78,
    "LBSTRESU": "mmHg",
    "LBSTNRLO": 0,
    "LBSTNRHI": 100,
    "LBNRIND": "NORMAL",
    "VISITNUM": 2,
    "VISIT": "Baseline",
    "LBDTC": "2025-01-10T08:30:00"
  },
  {
    "STUDYID": "ONC-2025-001",
    "DOMAIN": "LB",
    "USUBJID": "ONC-2025-001-001",
    "LBSEQ": 3,
    "LBTESTCD": "PULSE",
    "LBTEST": "Pulse Rate",
    "LBCAT": "CHEMISTRY",
    "LBORRES": "70",
    "LBORRESU": "beats/min",
    "LBSTRESC": "70",
    "LBSTRESN": 70,
    "LBSTRESU": "beats/min",
    "LBSTNRLO": 0,
    "LBSTNRHI": 100,
    "LBNRIND": "NORMAL",
    "VISITNUM": 2,
    "VISIT": "Baseline",
    "LBDTC": "2025-01-10T08:30:00"
  },
  {
    "STUDYID": "ONC-2025-001",
    "DOMAIN": "LB",
    "USUBJID": "ONC-2025-001-002",
    "LBSEQ": 4,
    "LBTESTCD": "SYSBP",
    "LBTEST": "Systolic Blood Pressure",
    "LBCAT": "CHEMISTRY",
    "LBORRES": "128",
    "LBORRESU": "mmHg",
    "LBSTRESC": "128",
    "LBSTRESN": 128,
    "LBSTRESU": "mmHg",
    "LBSTNRLO": 0,
    "LBSTNRHI": 100,
    "LBNRIND": "HIGH",
    "VISITNUM": 2,
    "VISIT": "Baseline",
    "LBDTC": "2025-01-12T08:30:00"
  },
  {
    "STUDYID": "ONC-2025-001",
    "DOMAIN": "LB",
    "USUBJID": "ONC-2025-001-002",
    "LBSEQ": 5,
    "LBTESTCD": "DIABP",
    "LBTEST": "Diastolic Blood Pressure",
    "LBCAT": "CHEMISTRY",
    "LBORRES": "82",
    "LBORRESU": "mmHg",
    "LBSTRESC": "82",
    "LBSTRESN": 82,
    "LBSTRESU": "mmHg",
    "LBSTNRLO": 0,
    "LBSTNRHI": 100,
    "LBNRIND": "NORMAL",
    "VISITNUM": 2,
    "VISIT": "Baseline",
    "LBDTC": "2025-01-12T08:30:00"
  }
]