[
  {
    "STUDYID": "ONC-2025-001",
    "DOMAIN": "MH",
    "USUBJID": "ONC-2025-001-001",
    "MHSEQ": 1,
    "MHTERM": "Type 2 Diabetes Mellitus",
    "MHDECOD": "TYPE 2 DIABETES MELLITUS",
    "MHBODSYS": "METABOLISM AND NUTRITION DISORDERS",
    "MHCAT": "PRIMARY CONDITION",
    "MHSTDTC": "2019-03-15",
    "MHENRTP": "ONGOING"
  },
  {
    "STUDYID": "ONC-2025-001",
    "DOMAIN": "MH",
    "USUBJID": "ONC-2025-001-002",
    "MHSEQ": 2,
    "MHTERM": "Type 2 Diabetes Mellitus",
    "MHDECOD": "TYPE 2 DIABETES MELLITUS",
    "MHBODSYS": "METABOLISM AND NUTRITION DISORDERS",
    "MHCAT": "PRIMARY CONDITION",
    "MHSTDTC": "2019-03-15",
    "MHENRTP": "ONGOING"
  },
  {
    "STUDYID": "ONC-2025-001",
    "DOMAIN": "MH",
    "USUBJID": "ONC-2025-001-003",
    "MHSEQ": 3,
    "MHTERM": "Type 2 Diabetes Mellitus",
    "MHDECOD": "TYPE 2 DIABETES MELLITUS",
    "MHBODSYS": "METABOLISM AND NUTRITION DISORDERS",
    "MHCAT": "PRIMARY CONDITION",
    "MHSTDTC": "2019-03-15",
    "MHENRTP": "ONGOING"
  },
  {
    "STUDYID": "ONC-2025-001",
    "DOMAIN": "MH",
    "USUBJID": "ONC-2025-001-004",
    "MHSEQ": 4,
    "MHTERM": "Type 2 Diabetes Mellitus",
    "MHDECOD": "TYPE 2 DIABETES MELLITUS",
    "MHBODSYS": "METABOLISM AND NUTRITION DISORDERS",
    "MHCAT": "PRIMARY CONDITION",
    "MHSTDTC": "2019-03-15",
    "MHENRTP": "ONGOING"
  },
  {
    "STUDYID": "ONC-2025-001",
    "DOMAIN": "MH",
    "USUBJID": "ONC-2025-001-005",
    "MHSEQ": 5,
    "MHTERM": "Type 2 Diabetes Mellitus",
    "MHDECOD": "TYPE 2 DIABETES MELLITUS",
    "MHBODSYS": "METABOLISM AND NUTRITION DISORDERS",
    "MHCAT": "PRIMARY CONDITION",
    "MHSTDTC": "2019-03-15",
    "MHENRTP": "ONGOING"
  },
  {
    "STUDYID": "ONC-2025-001",
    "DOMAIN": "MH",
    "USUBJID": "ONC-2025-001-006",
    "MHSEQ": 6,
    "MHTERM": "Type 2 Diabetes Mellitus",
    "MHDECOD": "TYPE 2 DIABETES MELLITUS",
    "MHBODSYS": "METABOLISM AND NUTRITION DISORDERS",
    "MHCAT": "PRIMARY CONDITION",
    "MHSTDTC": "2019-03-15",
    "MHENRTP": "ONGOING"
  },
  {
    "STUDYID": "ONC-2025-001",
    "DOMAIN": "MH",
    "USUBJID": "ONC-2025-001-007",
    "MHSEQ": 7,
    "MHTERM": "Type 2 Diabetes Mellitus",
    "MHDECOD": "TYPE 2 DIABETES MELLITUS",
    "MHBODSYS": "METABOLISM AND NUTRITION DISORDERS",
    "MHCAT": "PRIMARY CONDITION",
    "MHSTDTC": "2019-03-15",
    "MHENRTP": "ONGOING"
  },
  {
    "STUDYID": "ONC-2025-001",
    "DOMAIN": "MH",
    "USUBJID": "ONC-2025-001-008",
    "MHSEQ": 8,
    "MHTERM": "Type 2 Diabetes Mellitus",
    "MHDECOD": "TYPE 2 DIABETES MELLITUS",
    "MHBODSYS": "METABOLISM AND NUTRITION DISORDERS",
    "MHCAT": "PRIMARY CONDITION",
    "MHSTDTC": "2019-03-15",
    "MHENRTP": "ONGOING"
  },
  {
    "STUDYID": "ONC-2025-001",
    "DOMAIN": "MH",
    "USUBJID": "ONC-2025-001-009",
    "MHSEQ": 9,
    "MHTERM": "Type 2 Diabetes Mellitus",
    "MHDECOD": "TYPE 2 DIABETES MELLITUS",
    "MHBODSYS": "METABOLISM AND NUTRITION DISORDERS",
    "MHCAT": "PRIMARY CONDITION",
    "MHSTDTC": "2019-03-15",
    "MHENRTP": "ONGOING"
  },
  {
    "STUDYID": "ONC-2025-001",
    "DOMAIN": "MH",
    "USUBJID": "ONC-2025-001-010",
    "MHSEQ": 10,
    "MHTERM": "Type 2 Diabetes Mellitus",
    "MHDECOD": "TYPE 2 DIABETES MELLITUS",
    "MHBODSYS": "METABOLISM AND NUTRITION DISORDERS",
    "MHCAT": "PRIMARY CONDITION",
    "MHSTDTC": "2019-03-15",
    "MHENRTP": "ONGOING"
  }
]