{"DM":[{"STUDYID":"ONC-2025-001","DOMAIN":"DM","USUBJID":"ONC-2025-001-001","SUBJID":"001","SITEID":"101","RFSTDTC":"2025-01-10T09:00:00","RFENDTC":"2025-06-15T17:00:00","AGE":58,"AGEU":"YEARS","SEX":"M","RACE":"WHITE","ETHNIC":"HISPANIC OR LATINO","ARMCD":"TRT","ARM":"Pembrolizumab 200mg","COUNTRY":"USA","_hasDosed":1,"_hasMajorViolation":0,"_compliance":98},{"STUDYID":"ONC-2025-001","DOMAIN":"DM","USUBJID":"ONC-2025-001-002","SUBJID":"002","SITEID":"101","RFSTDTC":"2025-01-12T09:00:00","RFENDTC":"2025-06-18T17:00:00","AGE":64,"AGEU":"YEARS","SEX":"F","RACE":"ASIAN","ETHNIC":"HISPANIC OR LATINO","ARMCD":"TRT","ARM":"Pembrolizumab 200mg","COUNTRY":"USA","_hasDosed":1,"_hasMajorViolation":0,"_compliance":94},{"STUDYID":"ONC-2025-001","DOMAIN":"DM","USUBJID":"ONC-2025-001-003","SUBJID":"003","SITEID":"102","RFSTDTC":"2025-01-15T09:00:00","RFENDTC":"2025-06-20T17:00:00","AGE":52,"AGEU":"YEARS","SEX":"M","RACE":"BLACK OR AFRICAN AMERICAN","ETHNIC":"HISPANIC OR LATINO","ARMCD":"PLAC","ARM":"Placebo","COUNTRY":"USA","_hasDosed":1,"_hasMajorViolation":0,"_compliance":92},{"STUDYID":"ONC-2025-001","DOMAIN":"DM","USUBJID":"ONC-2025-001-004","SUBJID":"004","SITEID":"102","RFSTDTC":"2025-01-18T09:00:00","RFENDTC":"2025-06-22T17:00:00","AGE":71,"AGEU":"YEARS","SEX":"F","RACE":"WHITE","ETHNIC":"HISPANIC OR LATINO","ARMCD":"PLAC","ARM":"Placebo","COUNTRY":"USA","_hasDosed":1,"_hasMajorViolation":0,"_compliance":88},{"STUDYID":"ONC-2025-001","DOMAIN":"DM","USUBJID":"ONC-2025-001-005","SUBJID":"005","SITEID":"103","RFSTDTC":"2025-01-20T09:00:00","RFENDTC":"2025-06-25T17:00:00","AGE":49,"AGEU":"YEARS","SEX":"M","RACE":"WHITE","ETHNIC":"HISPANIC OR LATINO","ARMCD":"TRT","ARM":"Pembrolizumab 200mg","COUNTRY":"USA","_hasDosed":1,"_hasMajorViolation":0,"_compliance":96},{"STUDYID":"ONC-2025-001","DOMAIN":"DM","USUBJID":"ONC-2025-001-006","SUBJID":"006","SITEID":"103","RFSTDTC":"2025-01-22T09:00:00","RFENDTC":"2025-06-28T17:00:00","AGE":62,"AGEU":"YEARS","SEX":"F","RACE":"WHITE","ETHNIC":"HISPANIC OR LATINO","ARMCD":"TRT","ARM":"Pembrolizumab 200mg","COUNTRY":"USA","_hasDosed":1,"_hasMajorViolation":0,"_compliance":95},{"STUDYID":"ONC-2025-001","DOMAIN":"DM","USUBJID":"ONC-2025-001-007","SUBJID":"007","SITEID":"104","RFSTDTC":"2025-01-25T09:00:00","RFENDTC":"2025-07-01T17:00:00","AGE":55,"AGEU":"YEARS","SEX":"M","RACE":"ASIAN","ETHNIC":"HISPANIC OR LATINO","ARMCD":"PLAC","ARM":"Placebo","COUNTRY":"USA","_hasDosed":1,"_hasMajorViolation":0,"_compliance":89},{"STUDYID":"ONC-2025-001","DOMAIN":"DM","USUBJID":"ONC-2025-001-008","SUBJID":"008","SITEID":"104","RFSTDTC":"2025-01-28T09:00:00","RFENDTC":"2025-07-05T17:00:00","AGE":67,"AGEU":"YEARS","SEX":"F","RACE":"BLACK OR AFRICAN AMERICAN","ETHNIC":"HISPANIC OR LATINO","ARMCD":"TRT","ARM":"Pembrolizumab 200mg","COUNTRY":"USA","_hasDosed":1,"_hasMajorViolation":0,"_compliance":97},{"STUDYID":"ONC-2025-001","DOMAIN":"DM","USUBJID":"ONC-2025-001-009","SUBJID":"009","SITEID":"105","RFSTDTC":"2025-02-01T09:00:00","RFENDTC":"2025-07-10T17:00:00","AGE":43,"AGEU":"YEARS","SEX":"M","RACE":"WHITE","ETHNIC":"HISPANIC OR LATINO","ARMCD":"PLAC","ARM":"Placebo","COUNTRY":"USA","_hasDosed":1,"_hasMajorViolation":0,"_compliance":91},{"STUDYID":"ONC-2025-001","DOMAIN":"DM","USUBJID":"ONC-2025-001-010","SUBJID":"010","SITEID":"10","RFSTDTC":"2026-09-20","RFENDTC":"2026-09-20","AGE":50,"AGEU":"YEARS","SEX":"M","RACE":"WHITE","ETHNIC":"HISPANIC OR LATINO","ARMCD":"ACT","ARM":"Active Drug","COUNTRY":"USA","_hasDosed":1,"_hasMajorViolation":0,"_compliance":90}],"ADSL":[{"STUDYID":"ONC-2025-001","USUBJID":"ONC-2025-001-001","SUBJID":"001","SITEID":"101","AGE":58,"AGEGR1":"<65","AGEGR1N":1,"AGEU":"YEARS","SEX":"M","RACE":"WHITE","ETHNIC":"HISPANIC OR LATINO","ARM":"Pembrolizumab 200mg","ARMCD":"TRT","TRT01P":"Pembrolizumab 200mg","TRT01PN":2,"TRT01A":"Pembrolizumab 200mg","TRT01AN":2,"TRTSDT":"2025-01-10","TRTEDT":"2025-06-15","TRTDURD":157,"ITTFL":"Y","SAFFL":"Y","PPFL":"Y","FASFL":"Y","EFFFL":"N","COMPLFL":"Y","COMPLIANCE":98,"DISCONT":"N"},{"STUDYID":"ONC-2025-001","USUBJID":"ONC-2025-001-002","SUBJID":"002","SITEID":"101","AGE":64,"AGEGR1":"<65","AGEGR1N":1,"AGEU":"YEARS","SEX":"F","RACE":"ASIAN","ETHNIC":"HISPANIC OR LATINO","ARM":"Pembrolizumab 200mg","ARMCD":"TRT","TRT01P":"Pembrolizumab 200mg","TRT01PN":2,"TRT01A":"Pembrolizumab 200mg","TRT01AN":2,"TRTSDT":"2025-01-12","TRTEDT":"2025-06-18","TRTDURD":158,"ITTFL":"Y","SAFFL":"Y","PPFL":"Y","FASFL":"Y","EFFFL":"N","COMPLFL":"Y","COMPLIANCE":94,"DISCONT":"N"},{"STUDYID":"ONC-2025-001","USUBJID":"ONC-2025-001-003","SUBJID":"003","SITEID":"102","AGE":52,"AGEGR1":"<65","AGEGR1N":1,"AGEU":"YEARS","SEX":"M","RACE":"BLACK OR AFRICAN AMERICAN","ETHNIC":"HISPANIC OR LATINO","ARM":"Placebo","ARMCD":"PLAC","TRT01P":"Placebo","TRT01PN":2,"TRT01A":"Placebo","TRT01AN":2,"TRTSDT":"2025-01-15","TRTEDT":"2025-06-20","TRTDURD":157,"ITTFL":"Y","SAFFL":"Y","PPFL":"Y","FASFL":"Y","EFFFL":"N","COMPLFL":"Y","COMPLIANCE":92,"DISCONT":"N"},{"STUDYID":"ONC-2025-001","USUBJID":"ONC-2025-001-004","SUBJID":"004","SITEID":"102","AGE":71,"AGEGR1":">=65","AGEGR1N":2,"AGEU":"YEARS","SEX":"F","RACE":"WHITE","ETHNIC":"HISPANIC OR LATINO","ARM":"Placebo","ARMCD":"PLAC","TRT01P":"Placebo","TRT01PN":2,"TRT01A":"Placebo","TRT01AN":2,"TRTSDT":"2025-01-18","TRTEDT":"2025-06-22","TRTDURD":156,"ITTFL":"Y","SAFFL":"Y","PPFL":"Y","FASFL":"Y","EFFFL":"N","COMPLFL":"Y","COMPLIANCE":88,"DISCONT":"N"},{"STUDYID":"ONC-2025-001","USUBJID":"ONC-2025-001-005","SUBJID":"005","SITEID":"103","AGE":49,"AGEGR1":"<65","AGEGR1N":1,"AGEU":"YEARS","SEX":"M","RACE":"WHITE","ETHNIC":"HISPANIC OR LATINO","ARM":"Pembrolizumab 200mg","ARMCD":"TRT","TRT01P":"Pembrolizumab 200mg","TRT01PN":2,"TRT01A":"Pembrolizumab 200mg","TRT01AN":2,"TRTSDT":"2025-01-20","TRTEDT":"2025-06-25","TRTDURD":157,"ITTFL":"Y","SAFFL":"Y","PPFL":"Y","FASFL":"Y","EFFFL":"N","COMPLFL":"Y","COMPLIANCE":96,"DISCONT":"N"},{"STUDYID":"ONC-2025-001","USUBJID":"ONC-2025-001-006","SUBJID":"006","SITEID":"103","AGE":62,"AGEGR1":"<65","AGEGR1N":1,"AGEU":"YEARS","SEX":"F","RACE":"WHITE","ETHNIC":"HISPANIC OR LATINO","ARM":"Pembrolizumab 200mg","ARMCD":"TRT","TRT01P":"Pembrolizumab 200mg","TRT01PN":2,"TRT01A":"Pembrolizumab 200mg","TRT01AN":2,"TRTSDT":"2025-01-22","TRTEDT":"2025-06-28","TRTDURD":158,"ITTFL":"Y","SAFFL":"Y","PPFL":"Y","FASFL":"Y","EFFFL":"N","COMPLFL":"Y","COMPLIANCE":95,"DISCONT":"N"},{"STUDYID":"ONC-2025-001","USUBJID":"ONC-2025-001-007","SUBJID":"007","SITEID":"104","AGE":55,"AGEGR1":"<65","AGEGR1N":1,"AGEU":"YEARS","SEX":"M","RACE":"ASIAN","ETHNIC":"HISPANIC OR LATINO","ARM":"Placebo","ARMCD":"PLAC","TRT01P":"Placebo","TRT01PN":2,"TRT01A":"Placebo","TRT01AN":2,"TRTSDT":"2025-01-25","TRTEDT":"2025-07-01","TRTDURD":158,"ITTFL":"Y","SAFFL":"Y","PPFL":"Y","FASFL":"Y","EFFFL":"N","COMPLFL":"Y","COMPLIANCE":89,"DISCONT":"N"},{"STUDYID":"ONC-2025-001","USUBJID":"ONC-2025-001-008","SUBJID":"008","SITEID":"104","AGE":67,"AGEGR1":">=65","AGEGR1N":2,"AGEU":"YEARS","SEX":"F","RACE":"BLACK OR AFRICAN AMERICAN","ETHNIC":"HISPANIC OR LATINO","ARM":"Pembrolizumab 200mg","ARMCD":"TRT","TRT01P":"Pembrolizumab 200mg","TRT01PN":2,"TRT01A":"Pembrolizumab 200mg","TRT01AN":2,"TRTSDT":"2025-01-28","TRTEDT":"2025-07-05","TRTDURD":159,"ITTFL":"Y","SAFFL":"Y","PPFL":"Y","FASFL":"Y","EFFFL":"N","COMPLFL":"Y","COMPLIANCE":97,"DISCONT":"N"},{"STUDYID":"ONC-2025-001","USUBJID":"ONC-2025-001-009","SUBJID":"009","SITEID":"105","AGE":43,"AGEGR1":"<65","AGEGR1N":1,"AGEU":"YEARS","SEX":"M","RACE":"WHITE","ETHNIC":"HISPANIC OR LATINO","ARM":"Placebo","ARMCD":"PLAC","TRT01P":"Placebo","TRT01PN":2,"TRT01A":"Placebo","TRT01AN":2,"TRTSDT":"2025-02-01","TRTEDT":"2025-07-10","TRTDURD":160,"ITTFL":"Y","SAFFL":"Y","PPFL":"Y","FASFL":"Y","EFFFL":"N","COMPLFL":"Y","COMPLIANCE":91,"DISCONT":"N"},{"STUDYID":"ONC-2025-001","USUBJID":"ONC-2025-001-010","SUBJID":"010","SITEID":"10","AGE":50,"AGEGR1":"<65","AGEGR1N":1,"AGEU":"YEARS","SEX":"M","RACE":"WHITE","ETHNIC":"HISPANIC OR LATINO","ARM":"Active Drug","ARMCD":"ACT","TRT01P":"Active Drug","TRT01PN":2,"TRT01A":"Active Drug","TRT01AN":2,"TRTSDT":"2026-09-20","TRTEDT":"2026-09-20","TRTDURD":1,"ITTFL":"Y","SAFFL":"Y","PPFL":"Y","FASFL":"Y","EFFFL":"N","COMPLFL":"Y","COMPLIANCE":90,"DISCONT":"N"}],"ADAE":[{"STUDYID":"ONC-2025-001","USUBJID":"ONC-2025-001-001","AESEQ":1,"AETERM":"Nausea","AELLT":"Nausea","AEPT":"Nausea","AESOC":"GASTROINTESTINAL DISORDERS","AESTDTC":"2025-01-15T10:00:00","AESTDT":"2025-01-15","AEDY":6,"AESEV":"MILD","AESEVN":1,"AEREL":"RELATED","AERELFL":"N","AESER":"N","TRTEMFL":"Y","TRT01A":"Pembrolizumab 200mg","TRT01AN":2,"SAFFL":"Y"},{"STUDYID":"ONC-2025-001","USUBJID":"ONC-2025-001-001","AESEQ":2,"AETERM":"Fatigue","AELLT":"Fatigue","AEPT":"Fatigue","AESOC":"GENERAL DISORDERS AND ADMINISTRATION SITE CONDITIONS","AESTDTC":"2025-02-01T08:00:00","AESTDT":"2025-02-01","AEDY":23,"AESEV":"MODERATE","AESEVN":2,"AEREL":"RELATED","AERELFL":"N","AESER":"N","TRTEMFL":"Y","TRT01A":"Pembrolizumab 200mg","TRT01AN":2,"SAFFL":"Y"},{"STUDYID":"ONC-2025-001","USUBJID":"ONC-2025-001-002","AESEQ":3,"AETERM":"Headache","AELLT":"Headache","AEPT":"Headache","AESOC":"NERVOUS SYSTEM DISORDERS","AESTDTC":"2025-01-20T14:00:00","AESTDT":"2025-01-20","AEDY":9,"AESEV":"MILD","AESEVN":1,"AEREL":"NOT RELATED","AERELFL":"N","AESER":"N","TRTEMFL":"Y","TRT01A":"Pembrolizumab 200mg","TRT01AN":2,"SAFFL":"Y"},{"STUDYID":"ONC-2025-001","USUBJID":"ONC-2025-001-003","AESEQ":4,"AETERM":"Rash maculo-papular","AELLT":"Rash maculo-papular","AEPT":"Rash maculo-papular","AESOC":"SKIN AND SUBCUTANEOUS TISSUE DISORDERS","AESTDTC":"2025-02-10T09:00:00","AESTDT":"2025-02-10","AEDY":27,"AESEV":"MODERATE","AESEVN":2,"AEREL":"RELATED","AERELFL":"N","AESER":"N","TRTEMFL":"Y","TRT01A":"Placebo","TRT01AN":2,"SAFFL":"Y"},{"STUDYID":"ONC-2025-001","USUBJID":"ONC-2025-001-005","AESEQ":5,"AETERM":"Pyrexia","AELLT":"Pyrexia","AEPT":"Pyrexia","AESOC":"GENERAL DISORDERS AND ADMINISTRATION SITE CONDITIONS","AESTDTC":"2025-02-14T11:00:00","AESTDT":"2025-02-14","AEDY":26,"AESEV":"MILD","AESEVN":1,"AEREL":"RELATED","AERELFL":"N","AESER":"N","TRTEMFL":"Y","TRT01A":"Pembrolizumab 200mg","TRT01AN":2,"SAFFL":"Y"},{"STUDYID":"ONC-2025-001","USUBJID":"ONC-2025-001-008","AESEQ":6,"AETERM":"Diarrhea","AELLT":"Diarrhea","AEPT":"Diarrhea","AESOC":"GASTROINTESTINAL DISORDERS","AESTDTC":"2025-02-22T08:00:00","AESTDT":"2025-02-22","AEDY":26,"AESEV":"MODERATE","AESEVN":2,"AEREL":"RELATED","AERELFL":"N","AESER":"N","TRTEMFL":"Y","TRT01A":"Pembrolizumab 200mg","TRT01AN":2,"SAFFL":"Y"},{"STUDYID":"ONC-2025-001","USUBJID":"ONC-2025-001-010","AESEQ":7,"AETERM":"Pruritus","AELLT":"Pruritus","AEPT":"Pruritus","AESOC":"SKIN AND SUBCUTANEOUS TISSUE DISORDERS","AESTDTC":"2025-03-01T10:00:00","AESTDT":"2025-03-01","AEDY":-568,"AESEV":"MILD","AESEVN":1,"AEREL":"RELATED","AERELFL":"N","AESER":"N","TRTEMFL":"N","TRT01A":"Active Drug","TRT01AN":2,"SAFFL":"Y"}],"ADLB":[{"STUDYID":"ONC-2025-001","USUBJID":"ONC-2025-001-001","PARAMCD":"SYSBP","PARAM":"Systolic Blood Pressure","PARCAT1":"CHEMISTRY","AVAL":122,"AVALC":"122","AVALU":"mmHg","BASE":122,"CHG":0,"PCHG":0,"ABLFL":"Y","ANRLO":0,"ANRHI":100,"ANRIND":"HIGH","ATOXGR":1,"ADY":1,"AVISIT":"Baseline","AVISITN":2,"ADTM":"2025-01-10T08:30:00","TRT01A":"Pembrolizumab 200mg","TRT01AN":2,"SAFFL":"Y"},{"STUDYID":"ONC-2025-001","USUBJID":"ONC-2025-001-001","PARAMCD":"DIABP","PARAM":"Diastolic Blood Pressure","PARCAT1":"CHEMISTRY","AVAL":78,"AVALC":"78","AVALU":"mmHg","BASE":78,"CHG":0,"PCHG":0,"ABLFL":"Y","ANRLO":0,"ANRHI":100,"ANRIND":"NORMAL","ATOXGR":0,"ADY":1,"AVISIT":"Baseline","AVISITN":2,"ADTM":"2025-01-10T08:30:00","TRT01A":"Pembrolizumab 200mg","TRT01AN":2,"SAFFL":"Y"},{"STUDYID":"ONC-2025-001","USUBJID":"ONC-2025-001-001","PARAMCD":"PULSE","PARAM":"Pulse Rate","PARCAT1":"CHEMISTRY","AVAL":70,"AVALC":"70","AVALU":"beats/min","BASE":70,"CHG":0,"PCHG":0,"ABLFL":"Y","ANRLO":0,"ANRHI":100,"ANRIND":"NORMAL","ATOXGR":0,"ADY":1,"AVISIT":"Baseline","AVISITN":2,"ADTM":"2025-01-10T08:30:00","TRT01A":"Pembrolizumab 200mg","TRT01AN":2,"SAFFL":"Y"},{"STUDYID":"ONC-2025-001","USUBJID":"ONC-2025-001-002","PARAMCD":"SYSBP","PARAM":"Systolic Blood Pressure","PARCAT1":"CHEMISTRY","AVAL":128,"AVALC":"128","AVALU":"mmHg","BASE":128,"CHG":0,"PCHG":0,"ABLFL":"Y","ANRLO":0,"ANRHI":100,"ANRIND":"HIGH","ATOXGR":1,"ADY":1,"AVISIT":"Baseline","AVISITN":2,"ADTM":"2025-01-12T08:30:00","TRT01A":"Pembrolizumab 200mg","TRT01AN":2,"SAFFL":"Y"},{"STUDYID":"ONC-2025-001","USUBJID":"ONC-2025-001-002","PARAMCD":"DIABP","PARAM":"Diastolic Blood Pressure","PARCAT1":"CHEMISTRY","AVAL":82,"AVALC":"82","AVALU":"mmHg","BASE":82,"CHG":0,"PCHG":0,"ABLFL":"Y","ANRLO":0,"ANRHI":100,"ANRIND":"NORMAL","ATOXGR":0,"ADY":1,"AVISIT":"Baseline","AVISITN":2,"ADTM":"2025-01-12T08:30:00","TRT01A":"Pembrolizumab 200mg","TRT01AN":2,"SAFFL":"Y"}]}