[
  {
    "STUDYID": "ONC-2025-001",
    "DOMAIN": "QS",
    "USUBJID": "ONC-2025-001-001",
    "QSSEQ": 1,
    "QSTESTCD": "EQ5D01",
    "QSTEST": "EQ-5D-5L Health Index",
    "QSCAT": "QUALITY OF LIFE",
    "QSORRES": "0.74",
    "QSSTRESN": 0.74,
    "VISIT": "Baseline",
    "VISITNUM": 2,
    "QSDTC": "2025-01-10"
  },
  {
    "STUDYID": "ONC-2025-001",
    "DOMAIN": "QS",
    "USUBJID": "ONC-2025-001-001",
    "QSSEQ": 2,
    "QSTESTCD": "EQ5D01",
    "QSTEST": "EQ-5D-5L Health Index",
    "QSCAT": "QUALITY OF LIFE",
    "QSORRES": "0.88",
    "QSSTRESN": 0.88,
    "VISIT": "Week 12",
    "VISITNUM": 5,
    "QSDTC": "2025-04-04"
  },
  {
    "STUDYID": "ONC-2025-001",
    "DOMAIN": "QS",
    "USUBJID": "ONC-2025-001-002",
    "QSSEQ": 3,
    "QSTESTCD": "EQ5D01",
    "QSTEST": "EQ-5D-5L Health Index",
    "QSCAT": "QUALITY OF LIFE",
    "QSORRES": "0.74",
    "QSSTRESN": 0.74,
    "VISIT": "Baseline",
    "VISITNUM": 2,
    "QSDTC": "2025-01-10"
  },
  {
    "STUDYID": "ONC-2025-001",
    "DOMAIN": "QS",
    "USUBJID": "ONC-2025-001-002",
    "QSSEQ": 4,
    "QSTESTCD": "EQ5D01",
    "QSTEST": "EQ-5D-5L Health Index",
    "QSCAT": "QUALITY OF LIFE",
    "QSORRES": "0.88",
    "QSSTRESN": 0.88,
    "VISIT": "Week 12",
    "VISITNUM": 5,
    "QSDTC": "2025-04-04"
  },
  {
    "STUDYID": "ONC-2025-001",
    "DOMAIN": "QS",
    "USUBJID": "ONC-2025-001-003",
    "QSSEQ": 5,
    "QSTESTCD": "EQ5D01",
    "QSTEST": "EQ-5D-5L Health Index",
    "QSCAT": "QUALITY OF LIFE",
    "QSORRES": "0.74",
    "QSSTRESN": 0.74,
    "VISIT": "Baseline",
    "VISITNUM": 2,
    "QSDTC": "2025-01-10"
  },
  {
    "STUDYID": "ONC-2025-001",
    "DOMAIN": "QS",
    "USUBJID": "ONC-2025-001-003",
    "QSSEQ": 6,
    "QSTESTCD": "EQ5D01",
    "QSTEST": "EQ-5D-5L Health Index",
    "QSCAT": "QUALITY OF LIFE",
    "QSORRES": "0.88",
    "QSSTRESN": 0.88,
    "VISIT": "Week 12",
    "VISITNUM": 5,
    "QSDTC": "2025-04-04"
  },
  {
    "STUDYID": "ONC-2025-001",
    "DOMAIN": "QS",
    "USUBJID": "ONC-2025-001-004",
    "QSSEQ": 7,
    "QSTESTCD": "EQ5D01",
    "QSTEST": "EQ-5D-5L Health Index",
    "QSCAT": "QUALITY OF LIFE",
    "QSORRES": "0.74",
    "QSSTRESN": 0.74,
    "VISIT": "Baseline",
    "VISITNUM": 2,
    "QSDTC": "2025-01-10"
  },
  {
    "STUDYID": "ONC-2025-001",
    "DOMAIN": "QS",
    "USUBJID": "ONC-2025-001-004",
    "QSSEQ": 8,
    "QSTESTCD": "EQ5D01",
    "QSTEST": "EQ-5D-5L Health Index",
    "QSCAT": "QUALITY OF LIFE",
    "QSORRES": "0.88",
    "QSSTRESN": 0.88,
    "VISIT": "Week 12",
    "VISITNUM": 5,
    "QSDTC": "2025-04-04"
  },
  {
    "STUDYID": "ONC-2025-001",
    "DOMAIN": "QS",
    "USUBJID": "ONC-2025-001-005",
    "QSSEQ": 9,
    "QSTESTCD": "EQ5D01",
    "QSTEST": "EQ-5D-5L Health Index",
    "QSCAT": "QUALITY OF LIFE",
    "QSORRES": "0.74",
    "QSSTRESN": 0.74,
    "VISIT": "Baseline",
    "VISITNUM": 2,
    "QSDTC": "2025-01-10"
  },
  {
    "STUDYID": "ONC-2025-001",
    "DOMAIN": "QS",
    "USUBJID": "ONC-2025-001-005",
    "QSSEQ": 10,
    "QSTESTCD": "EQ5D01",
    "QSTEST": "EQ-5D-5L Health Index",
    "QSCAT": "QUALITY OF LIFE",
    "QSORRES": "0.88",
    "QSSTRESN": 0.88,
    "VISIT": "Week 12",
    "VISITNUM": 5,
    "QSDTC": "2025-04-04"
  },
  {
    "STUDYID": "ONC-2025-001",
    "DOMAIN": "QS",
    "USUBJID": "ONC-2025-001-006",
    "QSSEQ": 11,
    "QSTESTCD": "EQ5D01",
    "QSTEST": "EQ-5D-5L Health Index",
    "QSCAT": "QUALITY OF LIFE",
    "QSORRES": "0.74",
    "QSSTRESN": 0.74,
    "VISIT": "Baseline",
    "VISITNUM": 2,
    "QSDTC": "2025-01-10"
  },
  {
    "STUDYID": "ONC-2025-001",
    "DOMAIN": "QS",
    "USUBJID": "ONC-2025-001-006",
    "QSSEQ": 12,
    "QSTESTCD": "EQ5D01",
    "QSTEST": "EQ-5D-5L Health Index",
    "QSCAT": "QUALITY OF LIFE",
    "QSORRES": "0.88",
    "QSSTRESN": 0.88,
    "VISIT": "Week 12",
    "VISITNUM": 5,
    "QSDTC": "2025-04-04"
  },
  {
    "STUDYID": "ONC-2025-001",
    "DOMAIN": "QS",
    "USUBJID": "ONC-2025-001-007",
    "QSSEQ": 13,
    "QSTESTCD": "EQ5D01",
    "QSTEST": "EQ-5D-5L Health Index",
    "QSCAT": "QUALITY OF LIFE",
    "QSORRES": "0.74",
    "QSSTRESN": 0.74,
    "VISIT": "Baseline",
    "VISITNUM": 2,
    "QSDTC": "2025-01-10"
  },
  {
    "STUDYID": "ONC-2025-001",
    "DOMAIN": "QS",
    "USUBJID": "ONC-2025-001-007",
    "QSSEQ": 14,
    "QSTESTCD": "EQ5D01",
    "QSTEST": "EQ-5D-5L Health Index",
    "QSCAT": "QUALITY OF LIFE",
    "QSORRES": "0.88",
    "QSSTRESN": 0.88,
    "VISIT": "Week 12",
    "VISITNUM": 5,
    "QSDTC": "2025-04-04"
  },
  {
    "STUDYID": "ONC-2025-001",
    "DOMAIN": "QS",
    "USUBJID": "ONC-2025-001-008",
    "QSSEQ": 15,
    "QSTESTCD": "EQ5D01",
    "QSTEST": "EQ-5D-5L Health Index",
    "QSCAT": "QUALITY OF LIFE",
    "QSORRES": "0.74",
    "QSSTRESN": 0.74,
    "VISIT": "Baseline",
    "VISITNUM": 2,
    "QSDTC": "2025-01-10"
  },
  {
    "STUDYID": "ONC-2025-001",
    "DOMAIN": "QS",
    "USUBJID": "ONC-2025-001-008",
    "QSSEQ": 16,
    "QSTESTCD": "EQ5D01",
    "QSTEST": "EQ-5D-5L Health Index",
    "QSCAT": "QUALITY OF LIFE",
    "QSORRES": "0.88",
    "QSSTRESN": 0.88,
    "VISIT": "Week 12",
    "VISITNUM": 5,
    "QSDTC": "2025-04-04"
  },
  {
    "STUDYID": "ONC-2025-001",
    "DOMAIN": "QS",
    "USUBJID": "ONC-2025-001-009",
    "QSSEQ": 17,
    "QSTESTCD": "EQ5D01",
    "QSTEST": "EQ-5D-5L Health Index",
    "QSCAT": "QUALITY OF LIFE",
    "QSORRES": "0.74",
    "QSSTRESN": 0.74,
    "VISIT": "Baseline",
    "VISITNUM": 2,
    "QSDTC": "2025-01-10"
  },
  {
    "STUDYID": "ONC-2025-001",
    "DOMAIN": "QS",
    "USUBJID": "ONC-2025-001-009",
    "QSSEQ": 18,
    "QSTESTCD": "EQ5D01",
    "QSTEST": "EQ-5D-5L Health Index",
    "QSCAT": "QUALITY OF LIFE",
    "QSORRES": "0.88",
    "QSSTRESN": 0.88,
    "VISIT": "Week 12",
    "VISITNUM": 5,
    "QSDTC": "2025-04-04"
  },
  {
    "STUDYID": "ONC-2025-001",
    "DOMAIN": "QS",
    "USUBJID": "ONC-2025-001-010",
    "QSSEQ": 19,
    "QSTESTCD": "EQ5D01",
    "QSTEST": "EQ-5D-5L Health Index",
    "QSCAT": "QUALITY OF LIFE",
    "QSORRES": "0.74",
    "QSSTRESN": 0.74,
    "VISIT": "Baseline",
    "VISITNUM": 2,
    "QSDTC": "2025-01-10"
  },
  {
    "STUDYID": "ONC-2025-001",
    "DOMAIN": "QS",
    "USUBJID": "ONC-2025-001-010",
    "QSSEQ": 20,
    "QSTESTCD": "EQ5D01",
    "QSTEST": "EQ-5D-5L Health Index",
    "QSCAT": "QUALITY OF LIFE",
    "QSORRES": "0.88",
    "QSSTRESN": 0.88,
    "VISIT": "Week 12",
    "VISITNUM": 5,
    "QSDTC": "2025-04-04"
  }
]