[
  {
    "STUDYID": "ONC-2025-001",
    "DOMAIN": "SV",
    "USUBJID": "ONC-2025-001-001",
    "SVSEQ": 1,
    "VISITNUM": 1,
    "VISIT": "Screening",
    "SVSTDTC": "2025-01-02T10:00:00",
    "SVENDTC": "2025-01-02T13:00:00"
  },
  {
    "STUDYID": "ONC-2025-001",
    "DOMAIN": "SV",
    "USUBJID": "ONC-2025-001-001",
    "SVSEQ": 2,
    "VISITNUM": 2,
    "VISIT": "Baseline",
    "SVSTDTC": "2025-01-10T08:30:00",
    "SVENDTC": "2025-01-10T15:00:00"
  },
  {
    "STUDYID": "ONC-2025-001",
    "DOMAIN": "SV",
    "USUBJID": "ONC-2025-001-001",
    "SVSEQ": 3,
    "VISITNUM": 5,
    "VISIT": "Week 12",
    "SVSTDTC": "2025-04-04T09:00:00",
    "SVENDTC": "2025-04-04T12:30:00"
  },
  {
    "STUDYID": "ONC-2025-001",
    "DOMAIN": "SV",
    "USUBJID": "ONC-2025-001-002",
    "SVSEQ": 4,
    "VISITNUM": 1,
    "VISIT": "Screening",
    "SVSTDTC": "2025-01-02T10:00:00",
    "SVENDTC": "2025-01-02T13:00:00"
  },
  {
    "STUDYID": "ONC-2025-001",
    "DOMAIN": "SV",
    "USUBJID": "ONC-2025-001-002",
    "SVSEQ": 5,
    "VISITNUM": 2,
    "VISIT": "Baseline",
    "SVSTDTC": "2025-01-10T08:30:00",
    "SVENDTC": "2025-01-10T15:00:00"
  },
  {
    "STUDYID": "ONC-2025-001",
    "DOMAIN": "SV",
    "USUBJID": "ONC-2025-001-002",
    "SVSEQ": 6,
    "VISITNUM": 5,
    "VISIT": "Week 12",
    "SVSTDTC": "2025-04-04T09:00:00",
    "SVENDTC": "2025-04-04T12:30:00"
  },
  {
    "STUDYID": "ONC-2025-001",
    "DOMAIN": "SV",
    "USUBJID": "ONC-2025-001-003",
    "SVSEQ": 7,
    "VISITNUM": 1,
    "VISIT": "Screening",
    "SVSTDTC": "2025-01-02T10:00:00",
    "SVENDTC": "2025-01-02T13:00:00"
  },
  {
    "STUDYID": "ONC-2025-001",
    "DOMAIN": "SV",
    "USUBJID": "ONC-2025-001-003",
    "SVSEQ": 8,
    "VISITNUM": 2,
    "VISIT": "Baseline",
    "SVSTDTC": "2025-01-10T08:30:00",
    "SVENDTC": "2025-01-10T15:00:00"
  },
  {
    "STUDYID": "ONC-2025-001",
    "DOMAIN": "SV",
    "USUBJID": "ONC-2025-001-003",
    "SVSEQ": 9,
    "VISITNUM": 5,
    "VISIT": "Week 12",
    "SVSTDTC": "2025-04-04T09:00:00",
    "SVENDTC": "2025-04-04T12:30:00"
  },
  {
    "STUDYID": "ONC-2025-001",
    "DOMAIN": "SV",
    "USUBJID": "ONC-2025-001-004",
    "SVSEQ": 10,
    "VISITNUM": 1,
    "VISIT": "Screening",
    "SVSTDTC": "2025-01-02T10:00:00",
    "SVENDTC": "2025-01-02T13:00:00"
  },
  {
    "STUDYID": "ONC-2025-001",
    "DOMAIN": "SV",
    "USUBJID": "ONC-2025-001-004",
    "SVSEQ": 11,
    "VISITNUM": 2,
    "VISIT": "Baseline",
    "SVSTDTC": "2025-01-10T08:30:00",
    "SVENDTC": "2025-01-10T15:00:00"
  },
  {
    "STUDYID": "ONC-2025-001",
    "DOMAIN": "SV",
    "USUBJID": "ONC-2025-001-004",
    "SVSEQ": 12,
    "VISITNUM": 5,
    "VISIT": "Week 12",
    "SVSTDTC": "2025-04-04T09:00:00",
    "SVENDTC": "2025-04-04T12:30:00"
  },
  {
    "STUDYID": "ONC-2025-001",
    "DOMAIN": "SV",
    "USUBJID": "ONC-2025-001-005",
    "SVSEQ": 13,
    "VISITNUM": 1,
    "VISIT": "Screening",
    "SVSTDTC": "2025-01-02T10:00:00",
    "SVENDTC": "2025-01-02T13:00:00"
  },
  {
    "STUDYID": "ONC-2025-001",
    "DOMAIN": "SV",
    "USUBJID": "ONC-2025-001-005",
    "SVSEQ": 14,
    "VISITNUM": 2,
    "VISIT": "Baseline",
    "SVSTDTC": "2025-01-10T08:30:00",
    "SVENDTC": "2025-01-10T15:00:00"
  },
  {
    "STUDYID": "ONC-2025-001",
    "DOMAIN": "SV",
    "USUBJID": "ONC-2025-001-005",
    "SVSEQ": 15,
    "VISITNUM": 5,
    "VISIT": "Week 12",
    "SVSTDTC": "2025-04-04T09:00:00",
    "SVENDTC": "2025-04-04T12:30:00"
  },
  {
    "STUDYID": "ONC-2025-001",
    "DOMAIN": "SV",
    "USUBJID": "ONC-2025-001-006",
    "SVSEQ": 16,
    "VISITNUM": 1,
    "VISIT": "Screening",
    "SVSTDTC": "2025-01-02T10:00:00",
    "SVENDTC": "2025-01-02T13:00:00"
  },
  {
    "STUDYID": "ONC-2025-001",
    "DOMAIN": "SV",
    "USUBJID": "ONC-2025-001-006",
    "SVSEQ": 17,
    "VISITNUM": 2,
    "VISIT": "Baseline",
    "SVSTDTC": "2025-01-10T08:30:00",
    "SVENDTC": "2025-01-10T15:00:00"
  },
  {
    "STUDYID": "ONC-2025-001",
    "DOMAIN": "SV",
    "USUBJID": "ONC-2025-001-006",
    "SVSEQ": 18,
    "VISITNUM": 5,
    "VISIT": "Week 12",
    "SVSTDTC": "2025-04-04T09:00:00",
    "SVENDTC": "2025-04-04T12:30:00"
  },
  {
    "STUDYID": "ONC-2025-001",
    "DOMAIN": "SV",
    "USUBJID": "ONC-2025-001-007",
    "SVSEQ": 19,
    "VISITNUM": 1,
    "VISIT": "Screening",
    "SVSTDTC": "2025-01-02T10:00:00",
    "SVENDTC": "2025-01-02T13:00:00"
  },
  {
    "STUDYID": "ONC-2025-001",
    "DOMAIN": "SV",
    "USUBJID": "ONC-2025-001-007",
    "SVSEQ": 20,
    "VISITNUM": 2,
    "VISIT": "Baseline",
    "SVSTDTC": "2025-01-10T08:30:00",
    "SVENDTC": "2025-01-10T15:00:00"
  },
  {
    "STUDYID": "ONC-2025-001",
    "DOMAIN": "SV",
    "USUBJID": "ONC-2025-001-007",
    "SVSEQ": 21,
    "VISITNUM": 5,
    "VISIT": "Week 12",
    "SVSTDTC": "2025-04-04T09:00:00",
    "SVENDTC": "2025-04-04T12:30:00"
  },
  {
    "STUDYID": "ONC-2025-001",
    "DOMAIN": "SV",
    "USUBJID": "ONC-2025-001-008",
    "SVSEQ": 22,
    "VISITNUM": 1,
    "VISIT": "Screening",
    "SVSTDTC": "2025-01-02T10:00:00",
    "SVENDTC": "2025-01-02T13:00:00"
  },
  {
    "STUDYID": "ONC-2025-001",
    "DOMAIN": "SV",
    "USUBJID": "ONC-2025-001-008",
    "SVSEQ": 23,
    "VISITNUM": 2,
    "VISIT": "Baseline",
    "SVSTDTC": "2025-01-10T08:30:00",
    "SVENDTC": "2025-01-10T15:00:00"
  },
  {
    "STUDYID": "ONC-2025-001",
    "DOMAIN": "SV",
    "USUBJID": "ONC-2025-001-008",
    "SVSEQ": 24,
    "VISITNUM": 5,
    "VISIT": "Week 12",
    "SVSTDTC": "2025-04-04T09:00:00",
    "SVENDTC": "2025-04-04T12:30:00"
  },
  {
    "STUDYID": "ONC-2025-001",
    "DOMAIN": "SV",
    "USUBJID": "ONC-2025-001-009",
    "SVSEQ": 25,
    "VISITNUM": 1,
    "VISIT": "Screening",
    "SVSTDTC": "2025-01-02T10:00:00",
    "SVENDTC": "2025-01-02T13:00:00"
  },
  {
    "STUDYID": "ONC-2025-001",
    "DOMAIN": "SV",
    "USUBJID": "ONC-2025-001-009",
    "SVSEQ": 26,
    "VISITNUM": 2,
    "VISIT": "Baseline",
    "SVSTDTC": "2025-01-10T08:30:00",
    "SVENDTC": "2025-01-10T15:00:00"
  },
  {
    "STUDYID": "ONC-2025-001",
    "DOMAIN": "SV",
    "USUBJID": "ONC-2025-001-009",
    "SVSEQ": 27,
    "VISITNUM": 5,
    "VISIT": "Week 12",
    "SVSTDTC": "2025-04-04T09:00:00",
    "SVENDTC": "2025-04-04T12:30:00"
  },
  {
    "STUDYID": "ONC-2025-001",
    "DOMAIN": "SV",
    "USUBJID": "ONC-2025-001-010",
    "SVSEQ": 28,
    "VISITNUM": 1,
    "VISIT": "Screening",
    "SVSTDTC": "2025-01-02T10:00:00",
    "SVENDTC": "2025-01-02T13:00:00"
  },
  {
    "STUDYID": "ONC-2025-001",
    "DOMAIN": "SV",
    "USUBJID": "ONC-2025-001-010",
    "SVSEQ": 29,
    "VISITNUM": 2,
    "VISIT": "Baseline",
    "SVSTDTC": "2025-01-10T08:30:00",
    "SVENDTC": "2025-01-10T15:00:00"
  },
  {
    "STUDYID": "ONC-2025-001",
    "DOMAIN": "SV",
    "USUBJID": "ONC-2025-001-010",
    "SVSEQ": 30,
    "VISITNUM": 5,
    "VISIT": "Week 12",
    "SVSTDTC": "2025-04-04T09:00:00",
    "SVENDTC": "2025-04-04T12:30:00"
  }
]