STUDYID,DOMAIN,USUBJID,AESEQ,AETERM,AELLT,AEPT,AESOC,AESEV,AEREL,AESER,AESTDTC,AEENDTC
ONC-2025-001,AE,ONC-2025-001-001,1,Nausea,Nausea,Nausea,GASTROINTESTINAL DISORDERS,MILD,RELATED,N,2025-01-15T10:00:00,2025-01-18T18:00:00
ONC-2025-001,AE,ONC-2025-001-001,2,Fatigue,Fatigue,Fatigue,GENERAL DISORDERS AND ADMINISTRATION SITE CONDITIONS,MODERATE,RELATED,N,2025-02-01T08:00:00,
ONC-2025-002,AE,ONC-2025-001-002,3,Headache,Headache,Headache,NERVOUS SYSTEM DISORDERS,MILD,NOT RELATED,N,2025-01-20T14:00:00,2025-01-21T18:00:00
ONC-2025-003,AE,ONC-2025-001-003,4,Rash maculo-papular,Rash maculo-papular,Rash maculo-papular,SKIN AND SUBCUTANEOUS TISSUE DISORDERS,MODERATE,RELATED,N,2025-02-10T09:00:00,2025-02-17T12:00:00
ONC-2025-005,AE,ONC-2025-001-005,5,Pyrexia,Pyrexia,Pyrexia,GENERAL DISORDERS AND ADMINISTRATION SITE CONDITIONS,MILD,RELATED,N,2025-02-14T11:00:00,2025-02-16T17:00:00
ONC-2025-008,AE,ONC-2025-001-008,6,Diarrhea,Diarrhea,Diarrhea,GASTROINTESTINAL DISORDERS,MODERATE,RELATED,N,2025-02-22T08:00:00,2025-02-25T20:00:00
ONC-2025-010,AE,ONC-2025-001-010,7,Pruritus,Pruritus,Pruritus,SKIN AND SUBCUTANEOUS TISSUE DISORDERS,MILD,RELATED,N,2025-03-01T10:00:00,