STUDYID,DOMAIN,USUBJID,CMSEQ,CMTRT,CMDECOD,CMCLAS,CMDOSE,CMDOSU,CMROUTE,CMDOSFRQ,CMSTDTC,CMENDTC,CMENRTP
ONC-2025-001,CM,ONC-2025-001-001,1,Metformin Hydrochloride,METFORMIN,BIGUANIDES,500,mg,ORAL,BID,2024-06-01,,ONGOING
ONC-2025-001,CM,ONC-2025-001-001,2,Atorvastatin Calcium,ATORVASTATIN,HMG-COA REDUCTASE INHIBITORS,20,mg,ORAL,QD,2024-06-01,,ONGOING
ONC-2025-001,CM,ONC-2025-001-002,3,Metformin Hydrochloride,METFORMIN,BIGUANIDES,500,mg,ORAL,BID,2024-06-01,,ONGOING
ONC-2025-001,CM,ONC-2025-001-002,4,Atorvastatin Calcium,ATORVASTATIN,HMG-COA REDUCTASE INHIBITORS,20,mg,ORAL,QD,2024-06-01,,ONGOING
ONC-2025-001,CM,ONC-2025-001-003,5,Metformin Hydrochloride,METFORMIN,BIGUANIDES,500,mg,ORAL,BID,2024-06-01,,ONGOING
ONC-2025-001,CM,ONC-2025-001-003,6,Atorvastatin Calcium,ATORVASTATIN,HMG-COA REDUCTASE INHIBITORS,20,mg,ORAL,QD,2024-06-01,,ONGOING
ONC-2025-001,CM,ONC-2025-001-004,7,Metformin Hydrochloride,METFORMIN,BIGUANIDES,500,mg,ORAL,BID,2024-06-01,,ONGOING
ONC-2025-001,CM,ONC-2025-001-004,8,Atorvastatin Calcium,ATORVASTATIN,HMG-COA REDUCTASE INHIBITORS,20,mg,ORAL,QD,2024-06-01,,ONGOING
ONC-2025-001,CM,ONC-2025-001-005,9,Metformin Hydrochloride,METFORMIN,BIGUANIDES,500,mg,ORAL,BID,2024-06-01,,ONGOING
ONC-2025-001,CM,ONC-2025-001-005,10,Atorvastatin Calcium,ATORVASTATIN,HMG-COA REDUCTASE INHIBITORS,20,mg,ORAL,QD,2024-06-01,,ONGOING
ONC-2025-001,CM,ONC-2025-001-006,11,Metformin Hydrochloride,METFORMIN,BIGUANIDES,500,mg,ORAL,BID,2024-06-01,,ONGOING
ONC-2025-001,CM,ONC-2025-001-006,12,Atorvastatin Calcium,ATORVASTATIN,HMG-COA REDUCTASE INHIBITORS,20,mg,ORAL,QD,2024-06-01,,ONGOING
ONC-2025-001,CM,ONC-2025-001-007,13,Metformin Hydrochloride,METFORMIN,BIGUANIDES,500,mg,ORAL,BID,2024-06-01,,ONGOING
ONC-2025-001,CM,ONC-2025-001-007,14,Atorvastatin Calcium,ATORVASTATIN,HMG-COA REDUCTASE INHIBITORS,20,mg,ORAL,QD,2024-06-01,,ONGOING
ONC-2025-001,CM,ONC-2025-001-008,15,Metformin Hydrochloride,METFORMIN,BIGUANIDES,500,mg,ORAL,BID,2024-06-01,,ONGOING
ONC-2025-001,CM,ONC-2025-001-008,16,Atorvastatin Calcium,ATORVASTATIN,HMG-COA REDUCTASE INHIBITORS,20,mg,ORAL,QD,2024-06-01,,ONGOING
ONC-2025-001,CM,ONC-2025-001-009,17,Metformin Hydrochloride,METFORMIN,BIGUANIDES,500,mg,ORAL,BID,2024-06-01,,ONGOING
ONC-2025-001,CM,ONC-2025-001-009,18,Atorvastatin Calcium,ATORVASTATIN,HMG-COA REDUCTASE INHIBITORS,20,mg,ORAL,QD,2024-06-01,,ONGOING
ONC-2025-001,CM,ONC-2025-001-010,19,Metformin Hydrochloride,METFORMIN,BIGUANIDES,500,mg,ORAL,BID,2024-06-01,,ONGOING
ONC-2025-001,CM,ONC-2025-001-010,20,Atorvastatin Calcium,ATORVASTATIN,HMG-COA REDUCTASE INHIBITORS,20,mg,ORAL,QD,2024-06-01,,ONGOING