STUDYID,DOMAIN,USUBJID,SUBJID,SITEID,RFSTDTC,RFENDTC,AGE,AGEU,SEX,RACE,ETHNIC,ARMCD,ARM,COUNTRY
ONC-2025-001,DM,ONC-2025-001-001,001,101,2025-01-10T09:00:00,2025-06-15T17:00:00,58,YEARS,M,WHITE,HISPANIC OR LATINO,TRT,Pembrolizumab 200mg,USA
ONC-2025-001,DM,ONC-2025-001-002,002,101,2025-01-12T09:00:00,2025-06-18T17:00:00,64,YEARS,F,ASIAN,HISPANIC OR LATINO,TRT,Pembrolizumab 200mg,USA
ONC-2025-001,DM,ONC-2025-001-003,003,102,2025-01-15T09:00:00,2025-06-20T17:00:00,52,YEARS,M,BLACK OR AFRICAN AMERICAN,HISPANIC OR LATINO,PLAC,Placebo,USA
ONC-2025-001,DM,ONC-2025-001-004,004,102,2025-01-18T09:00:00,2025-06-22T17:00:00,71,YEARS,F,WHITE,HISPANIC OR LATINO,PLAC,Placebo,USA
ONC-2025-001,DM,ONC-2025-001-005,005,103,2025-01-20T09:00:00,2025-06-25T17:00:00,49,YEARS,M,WHITE,HISPANIC OR LATINO,TRT,Pembrolizumab 200mg,USA
ONC-2025-001,DM,ONC-2025-001-006,006,103,2025-01-22T09:00:00,2025-06-28T17:00:00,62,YEARS,F,WHITE,HISPANIC OR LATINO,TRT,Pembrolizumab 200mg,USA
ONC-2025-001,DM,ONC-2025-001-007,007,104,2025-01-25T09:00:00,2025-07-01T17:00:00,55,YEARS,M,ASIAN,HISPANIC OR LATINO,PLAC,Placebo,USA
ONC-2025-001,DM,ONC-2025-001-008,008,104,2025-01-28T09:00:00,2025-07-05T17:00:00,67,YEARS,F,BLACK OR AFRICAN AMERICAN,HISPANIC OR LATINO,TRT,Pembrolizumab 200mg,USA
ONC-2025-001,DM,ONC-2025-001-009,009,105,2025-02-01T09:00:00,2025-07-10T17:00:00,43,YEARS,M,WHITE,HISPANIC OR LATINO,PLAC,Placebo,USA
ONC-2025-001,DM,ONC-2025-001-010,010,10,2026-09-20,2026-09-20,50,YEARS,M,WHITE,HISPANIC OR LATINO,ACT,Active Drug,USA