STUDYID,DOMAIN,USUBJID,DSSEQ,DSTERM,DSDECOD,DSCAT,EPOCH,DSSTDTC
ONC-2025-001,DS,ONC-2025-001-001,1,COMPLETED TREATMENT PERIOD,COMPLETED,DISPOSITION EVENT,TREATMENT,2025-06-20
ONC-2025-001,DS,ONC-2025-001-002,2,COMPLETED TREATMENT PERIOD,COMPLETED,DISPOSITION EVENT,TREATMENT,2025-06-20
ONC-2025-001,DS,ONC-2025-001-003,3,COMPLETED TREATMENT PERIOD,COMPLETED,DISPOSITION EVENT,TREATMENT,2025-06-20
ONC-2025-001,DS,ONC-2025-001-004,4,COMPLETED TREATMENT PERIOD,COMPLETED,DISPOSITION EVENT,TREATMENT,2025-06-20
ONC-2025-001,DS,ONC-2025-001-005,5,COMPLETED TREATMENT PERIOD,COMPLETED,DISPOSITION EVENT,TREATMENT,2025-06-20
ONC-2025-001,DS,ONC-2025-001-006,6,COMPLETED TREATMENT PERIOD,COMPLETED,DISPOSITION EVENT,TREATMENT,2025-06-20
ONC-2025-001,DS,ONC-2025-001-007,7,COMPLETED TREATMENT PERIOD,COMPLETED,DISPOSITION EVENT,TREATMENT,2025-06-20
ONC-2025-001,DS,ONC-2025-001-008,8,COMPLETED TREATMENT PERIOD,COMPLETED,DISPOSITION EVENT,TREATMENT,2025-06-20
ONC-2025-001,DS,ONC-2025-001-009,9,COMPLETED TREATMENT PERIOD,COMPLETED,DISPOSITION EVENT,TREATMENT,2025-06-20
ONC-2025-001,DS,ONC-2025-001-010,10,COMPLETED TREATMENT PERIOD,COMPLETED,DISPOSITION EVENT,TREATMENT,2025-06-20