STUDYID,DOMAIN,USUBJID,EGSEQ,EGTESTCD,EGTEST,EGORRES,EGSTRESN,EGSTRESU,EGSTRESC,VISIT,VISITNUM,EGDTC
ONC-2025-001,EG,ONC-2025-001-001,1,QTCF,QTcF Interval Fridericia,412,412,ms,NORMAL,Baseline,2,2025-01-10T09:30:00
ONC-2025-001,EG,ONC-2025-001-001,2,QTCF,QTcF Interval Fridericia,418,418,ms,NORMAL,Week 12,5,2025-04-04T10:15:00
ONC-2025-001,EG,ONC-2025-001-002,3,QTCF,QTcF Interval Fridericia,412,412,ms,NORMAL,Baseline,2,2025-01-10T09:30:00
ONC-2025-001,EG,ONC-2025-001-002,4,QTCF,QTcF Interval Fridericia,418,418,ms,NORMAL,Week 12,5,2025-04-04T10:15:00
ONC-2025-001,EG,ONC-2025-001-003,5,QTCF,QTcF Interval Fridericia,412,412,ms,NORMAL,Baseline,2,2025-01-10T09:30:00
ONC-2025-001,EG,ONC-2025-001-003,6,QTCF,QTcF Interval Fridericia,418,418,ms,NORMAL,Week 12,5,2025-04-04T10:15:00
ONC-2025-001,EG,ONC-2025-001-004,7,QTCF,QTcF Interval Fridericia,412,412,ms,NORMAL,Baseline,2,2025-01-10T09:30:00
ONC-2025-001,EG,ONC-2025-001-004,8,QTCF,QTcF Interval Fridericia,418,418,ms,NORMAL,Week 12,5,2025-04-04T10:15:00
ONC-2025-001,EG,ONC-2025-001-005,9,QTCF,QTcF Interval Fridericia,412,412,ms,NORMAL,Baseline,2,2025-01-10T09:30:00
ONC-2025-001,EG,ONC-2025-001-005,10,QTCF,QTcF Interval Fridericia,418,418,ms,NORMAL,Week 12,5,2025-04-04T10:15:00
ONC-2025-001,EG,ONC-2025-001-006,11,QTCF,QTcF Interval Fridericia,412,412,ms,NORMAL,Baseline,2,2025-01-10T09:30:00
ONC-2025-001,EG,ONC-2025-001-006,12,QTCF,QTcF Interval Fridericia,418,418,ms,NORMAL,Week 12,5,2025-04-04T10:15:00
ONC-2025-001,EG,ONC-2025-001-007,13,QTCF,QTcF Interval Fridericia,412,412,ms,NORMAL,Baseline,2,2025-01-10T09:30:00
ONC-2025-001,EG,ONC-2025-001-007,14,QTCF,QTcF Interval Fridericia,418,418,ms,NORMAL,Week 12,5,2025-04-04T10:15:00
ONC-2025-001,EG,ONC-2025-001-008,15,QTCF,QTcF Interval Fridericia,412,412,ms,NORMAL,Baseline,2,2025-01-10T09:30:00
ONC-2025-001,EG,ONC-2025-001-008,16,QTCF,QTcF Interval Fridericia,418,418,ms,NORMAL,Week 12,5,2025-04-04T10:15:00
ONC-2025-001,EG,ONC-2025-001-009,17,QTCF,QTcF Interval Fridericia,412,412,ms,NORMAL,Baseline,2,2025-01-10T09:30:00
ONC-2025-001,EG,ONC-2025-001-009,18,QTCF,QTcF Interval Fridericia,418,418,ms,NORMAL,Week 12,5,2025-04-04T10:15:00
ONC-2025-001,EG,ONC-2025-001-010,19,QTCF,QTcF Interval Fridericia,412,412,ms,NORMAL,Baseline,2,2025-01-10T09:30:00
ONC-2025-001,EG,ONC-2025-001-010,20,QTCF,QTcF Interval Fridericia,418,418,ms,NORMAL,Week 12,5,2025-04-04T10:15:00