STUDYID,DOMAIN,USUBJID,EXSEQ,EXTRT,EXDOSE,EXDOSU,EXDOSFRQ,EXSTDTC,EXENDTC
ONC-2025-001,EX,ONC-2025-001-001,1,Pembrolizumab,200,mg,ONCE DAILY,2025-01-10T09:00:00,2025-06-15T17:00:00
ONC-2025-001,EX,ONC-2025-001-002,2,Pembrolizumab,200,mg,ONCE DAILY,2025-01-12T09:00:00,2025-06-18T17:00:00
ONC-2025-001,EX,ONC-2025-001-003,3,Placebo,0,mg,ONCE DAILY,2025-01-15T09:00:00,2025-06-20T17:00:00
ONC-2025-001,EX,ONC-2025-001-004,4,Placebo,0,mg,ONCE DAILY,2025-01-18T09:00:00,2025-06-22T17:00:00
ONC-2025-001,EX,ONC-2025-001-005,5,Pembrolizumab,200,mg,ONCE DAILY,2025-01-20T09:00:00,2025-06-25T17:00:00