STUDYID,DOMAIN,USUBJID,LBSEQ,LBTESTCD,LBTEST,LBCAT,LBORRES,LBORRESU,LBSTRESC,LBSTRESN,LBSTRESU,LBSTNRLO,LBSTNRHI,LBNRIND,VISITNUM,VISIT,LBDTC
ONC-2025-001,LB,ONC-2025-001-001,1,SYSBP,Systolic Blood Pressure,CHEMISTRY,122,mmHg,122,122,mmHg,0,100,HIGH,2,Baseline,2025-01-10T08:30:00
ONC-2025-001,LB,ONC-2025-001-001,2,DIABP,Diastolic Blood Pressure,CHEMISTRY,78,mmHg,78,78,mmHg,0,100,NORMAL,2,Baseline,2025-01-10T08:30:00
ONC-2025-001,LB,ONC-2025-001-001,3,PULSE,Pulse Rate,CHEMISTRY,70,beats/min,70,70,beats/min,0,100,NORMAL,2,Baseline,2025-01-10T08:30:00
ONC-2025-001,LB,ONC-2025-001-002,4,SYSBP,Systolic Blood Pressure,CHEMISTRY,128,mmHg,128,128,mmHg,0,100,HIGH,2,Baseline,2025-01-12T08:30:00
ONC-2025-001,LB,ONC-2025-001-002,5,DIABP,Diastolic Blood Pressure,CHEMISTRY,82,mmHg,82,82,mmHg,0,100,NORMAL,2,Baseline,2025-01-12T08:30:00