STUDYID,DOMAIN,USUBJID,MHSEQ,MHTERM,MHDECOD,MHBODSYS,MHCAT,MHSTDTC,MHENRTP
ONC-2025-001,MH,ONC-2025-001-001,1,Type 2 Diabetes Mellitus,TYPE 2 DIABETES MELLITUS,METABOLISM AND NUTRITION DISORDERS,PRIMARY CONDITION,2019-03-15,ONGOING
ONC-2025-001,MH,ONC-2025-001-002,2,Type 2 Diabetes Mellitus,TYPE 2 DIABETES MELLITUS,METABOLISM AND NUTRITION DISORDERS,PRIMARY CONDITION,2019-03-15,ONGOING
ONC-2025-001,MH,ONC-2025-001-003,3,Type 2 Diabetes Mellitus,TYPE 2 DIABETES MELLITUS,METABOLISM AND NUTRITION DISORDERS,PRIMARY CONDITION,2019-03-15,ONGOING
ONC-2025-001,MH,ONC-2025-001-004,4,Type 2 Diabetes Mellitus,TYPE 2 DIABETES MELLITUS,METABOLISM AND NUTRITION DISORDERS,PRIMARY CONDITION,2019-03-15,ONGOING
ONC-2025-001,MH,ONC-2025-001-005,5,Type 2 Diabetes Mellitus,TYPE 2 DIABETES MELLITUS,METABOLISM AND NUTRITION DISORDERS,PRIMARY CONDITION,2019-03-15,ONGOING
ONC-2025-001,MH,ONC-2025-001-006,6,Type 2 Diabetes Mellitus,TYPE 2 DIABETES MELLITUS,METABOLISM AND NUTRITION DISORDERS,PRIMARY CONDITION,2019-03-15,ONGOING
ONC-2025-001,MH,ONC-2025-001-007,7,Type 2 Diabetes Mellitus,TYPE 2 DIABETES MELLITUS,METABOLISM AND NUTRITION DISORDERS,PRIMARY CONDITION,2019-03-15,ONGOING
ONC-2025-001,MH,ONC-2025-001-008,8,Type 2 Diabetes Mellitus,TYPE 2 DIABETES MELLITUS,METABOLISM AND NUTRITION DISORDERS,PRIMARY CONDITION,2019-03-15,ONGOING
ONC-2025-001,MH,ONC-2025-001-009,9,Type 2 Diabetes Mellitus,TYPE 2 DIABETES MELLITUS,METABOLISM AND NUTRITION DISORDERS,PRIMARY CONDITION,2019-03-15,ONGOING
ONC-2025-001,MH,ONC-2025-001-010,10,Type 2 Diabetes Mellitus,TYPE 2 DIABETES MELLITUS,METABOLISM AND NUTRITION DISORDERS,PRIMARY CONDITION,2019-03-15,ONGOING