STUDYID,DOMAIN,USUBJID,QSSEQ,QSTESTCD,QSTEST,QSCAT,QSORRES,QSSTRESN,VISIT,VISITNUM,QSDTC
ONC-2025-001,QS,ONC-2025-001-001,1,EQ5D01,EQ-5D-5L Health Index,QUALITY OF LIFE,0.74,0.74,Baseline,2,2025-01-10
ONC-2025-001,QS,ONC-2025-001-001,2,EQ5D01,EQ-5D-5L Health Index,QUALITY OF LIFE,0.88,0.88,Week 12,5,2025-04-04
ONC-2025-001,QS,ONC-2025-001-002,3,EQ5D01,EQ-5D-5L Health Index,QUALITY OF LIFE,0.74,0.74,Baseline,2,2025-01-10
ONC-2025-001,QS,ONC-2025-001-002,4,EQ5D01,EQ-5D-5L Health Index,QUALITY OF LIFE,0.88,0.88,Week 12,5,2025-04-04
ONC-2025-001,QS,ONC-2025-001-003,5,EQ5D01,EQ-5D-5L Health Index,QUALITY OF LIFE,0.74,0.74,Baseline,2,2025-01-10
ONC-2025-001,QS,ONC-2025-001-003,6,EQ5D01,EQ-5D-5L Health Index,QUALITY OF LIFE,0.88,0.88,Week 12,5,2025-04-04
ONC-2025-001,QS,ONC-2025-001-004,7,EQ5D01,EQ-5D-5L Health Index,QUALITY OF LIFE,0.74,0.74,Baseline,2,2025-01-10
ONC-2025-001,QS,ONC-2025-001-004,8,EQ5D01,EQ-5D-5L Health Index,QUALITY OF LIFE,0.88,0.88,Week 12,5,2025-04-04
ONC-2025-001,QS,ONC-2025-001-005,9,EQ5D01,EQ-5D-5L Health Index,QUALITY OF LIFE,0.74,0.74,Baseline,2,2025-01-10
ONC-2025-001,QS,ONC-2025-001-005,10,EQ5D01,EQ-5D-5L Health Index,QUALITY OF LIFE,0.88,0.88,Week 12,5,2025-04-04
ONC-2025-001,QS,ONC-2025-001-006,11,EQ5D01,EQ-5D-5L Health Index,QUALITY OF LIFE,0.74,0.74,Baseline,2,2025-01-10
ONC-2025-001,QS,ONC-2025-001-006,12,EQ5D01,EQ-5D-5L Health Index,QUALITY OF LIFE,0.88,0.88,Week 12,5,2025-04-04
ONC-2025-001,QS,ONC-2025-001-007,13,EQ5D01,EQ-5D-5L Health Index,QUALITY OF LIFE,0.74,0.74,Baseline,2,2025-01-10
ONC-2025-001,QS,ONC-2025-001-007,14,EQ5D01,EQ-5D-5L Health Index,QUALITY OF LIFE,0.88,0.88,Week 12,5,2025-04-04
ONC-2025-001,QS,ONC-2025-001-008,15,EQ5D01,EQ-5D-5L Health Index,QUALITY OF LIFE,0.74,0.74,Baseline,2,2025-01-10
ONC-2025-001,QS,ONC-2025-001-008,16,EQ5D01,EQ-5D-5L Health Index,QUALITY OF LIFE,0.88,0.88,Week 12,5,2025-04-04
ONC-2025-001,QS,ONC-2025-001-009,17,EQ5D01,EQ-5D-5L Health Index,QUALITY OF LIFE,0.74,0.74,Baseline,2,2025-01-10
ONC-2025-001,QS,ONC-2025-001-009,18,EQ5D01,EQ-5D-5L Health Index,QUALITY OF LIFE,0.88,0.88,Week 12,5,2025-04-04
ONC-2025-001,QS,ONC-2025-001-010,19,EQ5D01,EQ-5D-5L Health Index,QUALITY OF LIFE,0.74,0.74,Baseline,2,2025-01-10
ONC-2025-001,QS,ONC-2025-001-010,20,EQ5D01,EQ-5D-5L Health Index,QUALITY OF LIFE,0.88,0.88,Week 12,5,2025-04-04