STUDYID,DOMAIN,USUBJID,SVSEQ,VISITNUM,VISIT,SVSTDTC,SVENDTC
ONC-2025-001,SV,ONC-2025-001-001,1,1,Screening,2025-01-02T10:00:00,2025-01-02T13:00:00
ONC-2025-001,SV,ONC-2025-001-001,2,2,Baseline,2025-01-10T08:30:00,2025-01-10T15:00:00
ONC-2025-001,SV,ONC-2025-001-001,3,5,Week 12,2025-04-04T09:00:00,2025-04-04T12:30:00
ONC-2025-001,SV,ONC-2025-001-002,4,1,Screening,2025-01-02T10:00:00,2025-01-02T13:00:00
ONC-2025-001,SV,ONC-2025-001-002,5,2,Baseline,2025-01-10T08:30:00,2025-01-10T15:00:00
ONC-2025-001,SV,ONC-2025-001-002,6,5,Week 12,2025-04-04T09:00:00,2025-04-04T12:30:00
ONC-2025-001,SV,ONC-2025-001-003,7,1,Screening,2025-01-02T10:00:00,2025-01-02T13:00:00
ONC-2025-001,SV,ONC-2025-001-003,8,2,Baseline,2025-01-10T08:30:00,2025-01-10T15:00:00
ONC-2025-001,SV,ONC-2025-001-003,9,5,Week 12,2025-04-04T09:00:00,2025-04-04T12:30:00
ONC-2025-001,SV,ONC-2025-001-004,10,1,Screening,2025-01-02T10:00:00,2025-01-02T13:00:00
ONC-2025-001,SV,ONC-2025-001-004,11,2,Baseline,2025-01-10T08:30:00,2025-01-10T15:00:00
ONC-2025-001,SV,ONC-2025-001-004,12,5,Week 12,2025-04-04T09:00:00,2025-04-04T12:30:00
ONC-2025-001,SV,ONC-2025-001-005,13,1,Screening,2025-01-02T10:00:00,2025-01-02T13:00:00
ONC-2025-001,SV,ONC-2025-001-005,14,2,Baseline,2025-01-10T08:30:00,2025-01-10T15:00:00
ONC-2025-001,SV,ONC-2025-001-005,15,5,Week 12,2025-04-04T09:00:00,2025-04-04T12:30:00
ONC-2025-001,SV,ONC-2025-001-006,16,1,Screening,2025-01-02T10:00:00,2025-01-02T13:00:00
ONC-2025-001,SV,ONC-2025-001-006,17,2,Baseline,2025-01-10T08:30:00,2025-01-10T15:00:00
ONC-2025-001,SV,ONC-2025-001-006,18,5,Week 12,2025-04-04T09:00:00,2025-04-04T12:30:00
ONC-2025-001,SV,ONC-2025-001-007,19,1,Screening,2025-01-02T10:00:00,2025-01-02T13:00:00
ONC-2025-001,SV,ONC-2025-001-007,20,2,Baseline,2025-01-10T08:30:00,2025-01-10T15:00:00
ONC-2025-001,SV,ONC-2025-001-007,21,5,Week 12,2025-04-04T09:00:00,2025-04-04T12:30:00
ONC-2025-001,SV,ONC-2025-001-008,22,1,Screening,2025-01-02T10:00:00,2025-01-02T13:00:00
ONC-2025-001,SV,ONC-2025-001-008,23,2,Baseline,2025-01-10T08:30:00,2025-01-10T15:00:00
ONC-2025-001,SV,ONC-2025-001-008,24,5,Week 12,2025-04-04T09:00:00,2025-04-04T12:30:00
ONC-2025-001,SV,ONC-2025-001-009,25,1,Screening,2025-01-02T10:00:00,2025-01-02T13:00:00
ONC-2025-001,SV,ONC-2025-001-009,26,2,Baseline,2025-01-10T08:30:00,2025-01-10T15:00:00
ONC-2025-001,SV,ONC-2025-001-009,27,5,Week 12,2025-04-04T09:00:00,2025-04-04T12:30:00
ONC-2025-001,SV,ONC-2025-001-010,28,1,Screening,2025-01-02T10:00:00,2025-01-02T13:00:00
ONC-2025-001,SV,ONC-2025-001-010,29,2,Baseline,2025-01-10T08:30:00,2025-01-10T15:00:00
ONC-2025-001,SV,ONC-2025-001-010,30,5,Week 12,2025-04-04T09:00:00,2025-04-04T12:30:00