STUDYID,USUBJID,AESEQ,AETERM,AELLT,AEPT,AESOC,AESTDTC,AESTDT,AEDY,AESEV,AESEVN,AEREL,AERELFL,AESER,TRTEMFL,TRT01A,TRT01AN,SAFFL
ONC-2025-001,ONC-2025-001-001,1,Nausea,Nausea,Nausea,GASTROINTESTINAL DISORDERS,2025-01-15T10:00:00,2025-01-15,6,MILD,1,RELATED,N,N,Y,Pembrolizumab 200mg,2,Y
ONC-2025-001,ONC-2025-001-001,2,Fatigue,Fatigue,Fatigue,GENERAL DISORDERS AND ADMINISTRATION SITE CONDITIONS,2025-02-01T08:00:00,2025-02-01,23,MODERATE,2,RELATED,N,N,Y,Pembrolizumab 200mg,2,Y
ONC-2025-001,ONC-2025-001-002,3,Headache,Headache,Headache,NERVOUS SYSTEM DISORDERS,2025-01-20T14:00:00,2025-01-20,9,MILD,1,NOT RELATED,N,N,Y,Pembrolizumab 200mg,2,Y
ONC-2025-001,ONC-2025-001-003,4,Rash maculo-papular,Rash maculo-papular,Rash maculo-papular,SKIN AND SUBCUTANEOUS TISSUE DISORDERS,2025-02-10T09:00:00,2025-02-10,27,MODERATE,2,RELATED,N,N,Y,Placebo,2,Y
ONC-2025-001,ONC-2025-001-005,5,Pyrexia,Pyrexia,Pyrexia,GENERAL DISORDERS AND ADMINISTRATION SITE CONDITIONS,2025-02-14T11:00:00,2025-02-14,26,MILD,1,RELATED,N,N,Y,Pembrolizumab 200mg,2,Y
ONC-2025-001,ONC-2025-001-008,6,Diarrhea,Diarrhea,Diarrhea,GASTROINTESTINAL DISORDERS,2025-02-22T08:00:00,2025-02-22,26,MODERATE,2,RELATED,N,N,Y,Pembrolizumab 200mg,2,Y
ONC-2025-001,ONC-2025-001-010,7,Pruritus,Pruritus,Pruritus,SKIN AND SUBCUTANEOUS TISSUE DISORDERS,2025-03-01T10:00:00,2025-03-01,-568,MILD,1,RELATED,N,N,N,Active Drug,2,Y