STUDYID,USUBJID,CMTRT,CMDECOD,CMCLAS,CMDOSE,CMDOSU,ASTDT,AENDT,PREFL,ONTRTFL,TRTP
ONC-2025-001,ONC-2025-001-001,Metformin Hydrochloride,METFORMIN,BIGUANIDES,500,mg,2024-06-01,,Y,Y,Pembrolizumab 200mg
ONC-2025-001,ONC-2025-001-001,Atorvastatin Calcium,ATORVASTATIN,HMG-COA REDUCTASE INHIBITORS,20,mg,2024-06-01,,Y,Y,Pembrolizumab 200mg
ONC-2025-001,ONC-2025-001-002,Metformin Hydrochloride,METFORMIN,BIGUANIDES,500,mg,2024-06-01,,Y,Y,Pembrolizumab 200mg
ONC-2025-001,ONC-2025-001-002,Atorvastatin Calcium,ATORVASTATIN,HMG-COA REDUCTASE INHIBITORS,20,mg,2024-06-01,,Y,Y,Pembrolizumab 200mg
ONC-2025-001,ONC-2025-001-003,Metformin Hydrochloride,METFORMIN,BIGUANIDES,500,mg,2024-06-01,,Y,Y,Placebo
ONC-2025-001,ONC-2025-001-003,Atorvastatin Calcium,ATORVASTATIN,HMG-COA REDUCTASE INHIBITORS,20,mg,2024-06-01,,Y,Y,Placebo
ONC-2025-001,ONC-2025-001-004,Metformin Hydrochloride,METFORMIN,BIGUANIDES,500,mg,2024-06-01,,Y,Y,Placebo
ONC-2025-001,ONC-2025-001-004,Atorvastatin Calcium,ATORVASTATIN,HMG-COA REDUCTASE INHIBITORS,20,mg,2024-06-01,,Y,Y,Placebo
ONC-2025-001,ONC-2025-001-005,Metformin Hydrochloride,METFORMIN,BIGUANIDES,500,mg,2024-06-01,,Y,Y,Pembrolizumab 200mg
ONC-2025-001,ONC-2025-001-005,Atorvastatin Calcium,ATORVASTATIN,HMG-COA REDUCTASE INHIBITORS,20,mg,2024-06-01,,Y,Y,Pembrolizumab 200mg
ONC-2025-001,ONC-2025-001-006,Metformin Hydrochloride,METFORMIN,BIGUANIDES,500,mg,2024-06-01,,Y,Y,Pembrolizumab 200mg
ONC-2025-001,ONC-2025-001-006,Atorvastatin Calcium,ATORVASTATIN,HMG-COA REDUCTASE INHIBITORS,20,mg,2024-06-01,,Y,Y,Pembrolizumab 200mg
ONC-2025-001,ONC-2025-001-007,Metformin Hydrochloride,METFORMIN,BIGUANIDES,500,mg,2024-06-01,,Y,Y,Placebo
ONC-2025-001,ONC-2025-001-007,Atorvastatin Calcium,ATORVASTATIN,HMG-COA REDUCTASE INHIBITORS,20,mg,2024-06-01,,Y,Y,Placebo
ONC-2025-001,ONC-2025-001-008,Metformin Hydrochloride,METFORMIN,BIGUANIDES,500,mg,2024-06-01,,Y,Y,Pembrolizumab 200mg
ONC-2025-001,ONC-2025-001-008,Atorvastatin Calcium,ATORVASTATIN,HMG-COA REDUCTASE INHIBITORS,20,mg,2024-06-01,,Y,Y,Pembrolizumab 200mg
ONC-2025-001,ONC-2025-001-009,Metformin Hydrochloride,METFORMIN,BIGUANIDES,500,mg,2024-06-01,,Y,Y,Placebo
ONC-2025-001,ONC-2025-001-009,Atorvastatin Calcium,ATORVASTATIN,HMG-COA REDUCTASE INHIBITORS,20,mg,2024-06-01,,Y,Y,Placebo
ONC-2025-001,ONC-2025-001-010,Metformin Hydrochloride,METFORMIN,BIGUANIDES,500,mg,2024-06-01,,Y,Y,Active Drug
ONC-2025-001,ONC-2025-001-010,Atorvastatin Calcium,ATORVASTATIN,HMG-COA REDUCTASE INHIBITORS,20,mg,2024-06-01,,Y,Y,Active Drug