STUDYID,USUBJID,PARAMCD,PARAM,PARCAT1,AVAL,AVALC,AVALU,BASE,CHG,PCHG,ABLFL,ANRLO,ANRHI,ANRIND,ATOXGR,ADY,AVISIT,AVISITN,ADTM,TRT01A,TRT01AN,SAFFL
ONC-2025-001,ONC-2025-001-001,SYSBP,Systolic Blood Pressure,CHEMISTRY,122,122,mmHg,122,0,0,Y,0,100,HIGH,1,1,Baseline,2,2025-01-10T08:30:00,Pembrolizumab 200mg,2,Y
ONC-2025-001,ONC-2025-001-001,DIABP,Diastolic Blood Pressure,CHEMISTRY,78,78,mmHg,78,0,0,Y,0,100,NORMAL,0,1,Baseline,2,2025-01-10T08:30:00,Pembrolizumab 200mg,2,Y
ONC-2025-001,ONC-2025-001-001,PULSE,Pulse Rate,CHEMISTRY,70,70,beats/min,70,0,0,Y,0,100,NORMAL,0,1,Baseline,2,2025-01-10T08:30:00,Pembrolizumab 200mg,2,Y
ONC-2025-001,ONC-2025-001-002,SYSBP,Systolic Blood Pressure,CHEMISTRY,128,128,mmHg,128,0,0,Y,0,100,HIGH,1,1,Baseline,2,2025-01-12T08:30:00,Pembrolizumab 200mg,2,Y
ONC-2025-001,ONC-2025-001-002,DIABP,Diastolic Blood Pressure,CHEMISTRY,82,82,mmHg,82,0,0,Y,0,100,NORMAL,0,1,Baseline,2,2025-01-12T08:30:00,Pembrolizumab 200mg,2,Y