STUDYID,USUBJID,MHTERM,MHDECOD,MHBODSYS,MHCAT,ASTDT,MHONGOFL,TRTP
ONC-2025-001,ONC-2025-001-001,Type 2 Diabetes Mellitus,TYPE 2 DIABETES MELLITUS,METABOLISM AND NUTRITION DISORDERS,PRIMARY CONDITION,2019-03-15,Y,Pembrolizumab 200mg
ONC-2025-001,ONC-2025-001-002,Type 2 Diabetes Mellitus,TYPE 2 DIABETES MELLITUS,METABOLISM AND NUTRITION DISORDERS,PRIMARY CONDITION,2019-03-15,Y,Pembrolizumab 200mg
ONC-2025-001,ONC-2025-001-003,Type 2 Diabetes Mellitus,TYPE 2 DIABETES MELLITUS,METABOLISM AND NUTRITION DISORDERS,PRIMARY CONDITION,2019-03-15,Y,Placebo
ONC-2025-001,ONC-2025-001-004,Type 2 Diabetes Mellitus,TYPE 2 DIABETES MELLITUS,METABOLISM AND NUTRITION DISORDERS,PRIMARY CONDITION,2019-03-15,Y,Placebo
ONC-2025-001,ONC-2025-001-005,Type 2 Diabetes Mellitus,TYPE 2 DIABETES MELLITUS,METABOLISM AND NUTRITION DISORDERS,PRIMARY CONDITION,2019-03-15,Y,Pembrolizumab 200mg
ONC-2025-001,ONC-2025-001-006,Type 2 Diabetes Mellitus,TYPE 2 DIABETES MELLITUS,METABOLISM AND NUTRITION DISORDERS,PRIMARY CONDITION,2019-03-15,Y,Pembrolizumab 200mg
ONC-2025-001,ONC-2025-001-007,Type 2 Diabetes Mellitus,TYPE 2 DIABETES MELLITUS,METABOLISM AND NUTRITION DISORDERS,PRIMARY CONDITION,2019-03-15,Y,Placebo
ONC-2025-001,ONC-2025-001-008,Type 2 Diabetes Mellitus,TYPE 2 DIABETES MELLITUS,METABOLISM AND NUTRITION DISORDERS,PRIMARY CONDITION,2019-03-15,Y,Pembrolizumab 200mg
ONC-2025-001,ONC-2025-001-009,Type 2 Diabetes Mellitus,TYPE 2 DIABETES MELLITUS,METABOLISM AND NUTRITION DISORDERS,PRIMARY CONDITION,2019-03-15,Y,Placebo
ONC-2025-001,ONC-2025-001-010,Type 2 Diabetes Mellitus,TYPE 2 DIABETES MELLITUS,METABOLISM AND NUTRITION DISORDERS,PRIMARY CONDITION,2019-03-15,Y,Active Drug