STUDYID,USUBJID,SUBJID,SITEID,AGE,AGEGR1,AGEGR1N,AGEU,SEX,RACE,ETHNIC,ARM,ARMCD,TRT01P,TRT01PN,TRT01A,TRT01AN,TRTSDT,TRTEDT,TRTDURD,ITTFL,SAFFL,PPFL,FASFL,EFFFL,COMPLFL,COMPLIANCE,DISCONT
ONC-2025-001,ONC-2025-001-001,001,101,58,<65,1,YEARS,M,WHITE,HISPANIC OR LATINO,Pembrolizumab 200mg,TRT,Pembrolizumab 200mg,2,Pembrolizumab 200mg,2,2025-01-10,2025-06-15,157,Y,Y,Y,Y,N,Y,98,N
ONC-2025-001,ONC-2025-001-002,002,101,64,<65,1,YEARS,F,ASIAN,HISPANIC OR LATINO,Pembrolizumab 200mg,TRT,Pembrolizumab 200mg,2,Pembrolizumab 200mg,2,2025-01-12,2025-06-18,158,Y,Y,Y,Y,N,Y,94,N
ONC-2025-001,ONC-2025-001-003,003,102,52,<65,1,YEARS,M,BLACK OR AFRICAN AMERICAN,HISPANIC OR LATINO,Placebo,PLAC,Placebo,2,Placebo,2,2025-01-15,2025-06-20,157,Y,Y,Y,Y,N,Y,92,N
ONC-2025-001,ONC-2025-001-004,004,102,71,>=65,2,YEARS,F,WHITE,HISPANIC OR LATINO,Placebo,PLAC,Placebo,2,Placebo,2,2025-01-18,2025-06-22,156,Y,Y,Y,Y,N,Y,88,N
ONC-2025-001,ONC-2025-001-005,005,103,49,<65,1,YEARS,M,WHITE,HISPANIC OR LATINO,Pembrolizumab 200mg,TRT,Pembrolizumab 200mg,2,Pembrolizumab 200mg,2,2025-01-20,2025-06-25,157,Y,Y,Y,Y,N,Y,96,N
ONC-2025-001,ONC-2025-001-006,006,103,62,<65,1,YEARS,F,WHITE,HISPANIC OR LATINO,Pembrolizumab 200mg,TRT,Pembrolizumab 200mg,2,Pembrolizumab 200mg,2,2025-01-22,2025-06-28,158,Y,Y,Y,Y,N,Y,95,N
ONC-2025-001,ONC-2025-001-007,007,104,55,<65,1,YEARS,M,ASIAN,HISPANIC OR LATINO,Placebo,PLAC,Placebo,2,Placebo,2,2025-01-25,2025-07-01,158,Y,Y,Y,Y,N,Y,89,N
ONC-2025-001,ONC-2025-001-008,008,104,67,>=65,2,YEARS,F,BLACK OR AFRICAN AMERICAN,HISPANIC OR LATINO,Pembrolizumab 200mg,TRT,Pembrolizumab 200mg,2,Pembrolizumab 200mg,2,2025-01-28,2025-07-05,159,Y,Y,Y,Y,N,Y,97,N
ONC-2025-001,ONC-2025-001-009,009,105,43,<65,1,YEARS,M,WHITE,HISPANIC OR LATINO,Placebo,PLAC,Placebo,2,Placebo,2,2025-02-01,2025-07-10,160,Y,Y,Y,Y,N,Y,91,N
ONC-2025-001,ONC-2025-001-010,010,10,50,<65,1,YEARS,M,WHITE,HISPANIC OR LATINO,Active Drug,ACT,Active Drug,2,Active Drug,2,2026-09-21,2026-09-21,1,Y,Y,Y,Y,N,Y,90,N